Accel_X,Accel_Y,Accel_Z,Mag_X,Mag_Y,Mag_Z,Gyro_X,Gyro_Y,Gyro_Z
0.39,0.08,9.68,20.93,27.58,-43.61,-0.09,-1.87,0.00
0.46,0.05,9.78,21.35,27.16,-43.47,-0.10,-1.87,0.01
0.46,0.09,9.72,21.12,27.77,-42.93,-0.09,-1.87,0.01
0.41,0.05,9.73,21.40,27.36,-43.20,-0.09,-1.87,0.00
0.43,-0.02,9.72,20.61,27.49,-42.77,-0.09,-1.87,0.01
0.45,0.03,9.71,20.40,27.33,-43.10,-0.09,-1.87,0.00
0.39,0.06,9.75,20.56,27.64,-42.20,-0.09,-1.87,0.01
0.39,0.00,9.72,20.97,27.13,-42.66,-0.09,-1.87,0.00
0.51,0.16,9.86,20.89,27.32,-43.47,-0.09,-1.87,0.01
0.45,0.09,9.71,20.59,27.59,-42.65,-0.09,-1.88,0.00
0.29,0.11,9.74,20.94,27.46,-42.63,-0.09,-1.87,0.00
0.43,0.09,9.82,20.81,27.42,-42.74,-0.09,-1.87,0.01
0.45,0.05,9.82,21.08,27.20,-42.46,-0.09,-1.86,0.00
0.43,0.11,9.82,20.81,27.89,-43.15,-0.09,-1.87,0.01
0.39,0.05,9.78,21.12,27.58,-42.77,-0.09,-1.87,0.01
0.39,0.09,9.71,20.51,27.59,-43.28,-0.09,-1.87,0.00
0.42,0.12,9.79,21.12,27.40,-43.12,-0.09,-1.87,0.01
0.38,0.05,9.88,20.86,27.11,-42.50,-0.09,-1.87,0.00
0.41,-0.01,9.75,20.93,27.57,-42.85,-0.09,-1.87,0.01
0.42,0.09,9.83,20.96,27.96,-42.90,-0.09,-1.88,0.01
0.42,0.04,9.95,20.94,27.90,-42.60,-0.09,-1.87,0.00
0.47,0.01,9.76,20.77,27.65,-43.50,-0.09,-1.87,0.00
0.42,0.03,9.79,20.77,27.45,-43.77,-0.09,-1.87,0.01
0.44,0.00,9.81,20.91,27.83,-43.03,-0.09,-1.87,0.01
0.44,0.01,9.89,21.25,27.35,-43.91,-0.09,-1.88,0.01
0.45,0.07,9.91,20.93,27.51,-43.51,-0.09,-1.87,0.00
0.47,0.11,9.83,20.94,27.21,-43.82,-0.09,-1.88,0.00
0.49,0.03,9.86,20.72,27.57,-43.13,-0.09,-1.88,0.01
0.33,0.11,9.85,21.15,27.54,-43.66,-0.09,-1.87,0.01
0.51,0.11,9.83,21.09,27.39,-43.15,-0.09,-1.87,0.00
0.42,0.13,9.84,21.56,27.81,-43.77,-0.09,-1.87,0.00
0.45,0.09,9.86,20.91,27.26,-43.17,-0.09,-1.87,0.01
0.43,0.06,9.88,20.55,27.71,-44.14,-0.10,-1.87,0.01
0.44,0.01,9.80,20.14,28.03,-42.96,-0.10,-1.87,0.01
0.47,0.02,9.93,20.75,27.59,-43.67,-0.09,-1.88,0.00
0.45,0.05,9.90,20.23,27.57,-44.18,-0.09,-1.87,0.01
0.52,0.01,9.81,20.56,27.68,-43.89,-0.09,-1.87,0.01
0.45,-0.03,9.93,20.56,27.55,-43.58,-0.09,-1.87,0.01
0.50,0.07,9.87,20.75,27.61,-43.28,-0.09,-1.88,0.01
0.49,0.07,9.89,20.55,27.71,-43.20,-0.10,-1.87,0.01
0.45,0.10,9.81,20.67,27.78,-42.52,-0.09,-1.88,0.01
0.42,0.11,9.97,20.55,27.76,-42.78,-0.09,-1.87,0.00
0.38,0.06,9.80,20.97,27.96,-43.10,-0.09,-1.87,0.00
0.44,-0.01,9.85,21.00,27.68,-43.28,-0.09,-1.87,0.01
0.45,0.06,9.89,20.70,27.80,-43.61,-0.09,-1.87,0.01
0.53,0.06,9.85,20.96,27.64,-43.74,-0.09,-1.87,0.00
0.42,0.09,9.92,20.78,27.43,-43.17,-0.09,-1.87,0.00
0.42,0.11,9.96,20.30,27.87,-42.78,-0.09,-1.87,0.00
0.47,0.04,9.94,20.37,27.65,-42.87,-0.09,-1.88,0.01
0.46,0.08,9.90,20.70,27.57,-42.68,-0.09,-1.88,0.01
0.48,0.01,10.01,20.87,27.68,-43.51,-0.09,-1.87,0.01
0.47,0.04,9.75,20.83,27.26,-42.30,-0.09,-1.88,0.01
0.45,0.07,9.94,20.42,27.67,-42.74,-0.09,-1.87,0.01
0.48,0.11,9.99,20.65,27.71,-42.59,-0.09,-1.87,0.00
0.50,0.03,9.93,20.59,27.73,-42.12,-0.09,-1.87,0.01
0.50,0.04,9.94,20.75,27.89,-42.41,-0.09,-1.88,0.00
0.45,0.11,10.09,20.59,27.76,-42.60,-0.09,-1.88,0.01
0.39,0.11,9.95,20.55,27.29,-43.01,-0.09,-1.87,0.01
-3.01,1.21,-3.83,20.39,27.39,-42.79,-1.08,-10.16,0.75
0.45,0.09,9.89,20.15,27.67,-42.97,-0.12,-1.76,0.12
0.45,-0.01,9.98,20.52,27.58,-42.90,-0.09,-1.19,0.11
0.39,0.08,9.88,20.59,28.12,-42.82,-0.07,-0.73,0.10
0.42,0.00,9.93,20.30,28.43,-42.96,-0.04,-0.21,0.07
0.50,0.04,9.89,20.30,27.84,-41.98,-0.02,-0.05,0.09
0.44,0.07,9.99,20.42,27.65,-42.17,-0.00,0.20,0.08
0.42,0.07,9.95,20.56,27.76,-42.21,0.00,0.33,0.08
0.58,0.09,10.04,20.49,28.02,-43.22,0.01,0.39,0.07
0.45,0.05,9.93,20.45,27.77,-42.96,-0.03,0.53,-0.18
-3.18,1.32,-4.59,20.26,27.92,-42.25,-12.87,-39.98,6.25
0.40,0.12,9.99,20.30,27.90,-42.66,-0.01,-0.58,0.34
0.45,0.00,9.93,20.81,27.54,-42.81,-0.02,-0.19,0.07
0.42,0.04,10.02,20.65,28.25,-42.82,-0.01,-0.03,0.08
0.42,0.01,10.03,20.46,28.40,-43.42,-0.01,0.06,0.07
0.49,0.00,9.83,20.55,28.14,-43.19,0.00,0.19,0.06
0.41,0.09,10.11,20.08,27.97,-42.47,0.01,0.25,0.07
0.50,0.06,9.89,20.17,28.03,-43.32,0.00,0.27,0.06
0.52,0.09,9.96,20.30,27.96,-42.88,0.01,0.29,0.07
0.62,0.06,10.07,20.34,27.78,-42.87,0.02,0.28,0.06
0.40,0.02,10.04,19.85,27.97,-42.30,0.01,0.26,0.07
0.55,0.04,9.91,20.43,27.99,-42.53,0.01,0.24,0.06
-0.51,1.38,8.13,20.75,28.75,-42.05,1.43,3.09,0.10
-1.39,-0.30,12.57,20.87,29.07,-42.09,0.28,0.36,0.09
0.65,-0.45,9.68,21.18,28.92,-41.35,-0.15,-0.01,0.26
0.01,0.26,11.36,20.61,28.16,-42.47,-0.72,-1.59,0.45
2.56,-0.72,8.76,20.33,28.16,-42.25,0.28,0.42,0.02
0.85,-0.12,9.63,19.92,27.68,-42.30,-0.02,0.23,0.06
0.65,0.03,8.94,20.08,28.15,-42.20,-0.00,0.06,0.05
0.57,0.07,10.14,20.29,28.06,-42.22,-0.01,-0.01,0.05
0.22,0.52,9.94,20.33,27.93,-41.84,-0.01,-0.01,0.06
0.47,0.25,10.04,20.70,28.34,-42.49,0.01,-0.12,0.06
0.47,0.04,9.97,20.40,27.95,-42.84,0.03,0.03,0.01
0.49,-0.04,9.99,20.42,27.52,-42.12,0.01,-0.07,0.02
0.50,-0.11,10.01,19.95,28.00,-42.12,-0.01,-0.29,0.07
0.55,-0.04,10.06,20.56,27.73,-42.52,-0.03,-0.29,0.07
0.44,-0.02,10.04,20.21,28.05,-42.71,-0.02,-0.27,0.05
0.34,0.20,10.12,20.67,27.78,-43.29,-0.01,-0.30,0.06
0.44,0.26,10.11,20.18,28.59,-43.13,-0.00,-0.32,0.05
0.31,0.22,10.04,20.43,27.99,-42.71,0.01,-0.35,0.05
0.39,0.16,9.87,20.33,28.34,-43.12,-0.00,-0.44,0.06
0.34,-0.03,9.93,20.34,28.21,-42.82,0.00,-0.51,0.06
0.60,-0.14,9.95,21.03,27.89,-42.71,-0.01,-0.43,0.05
0.22,0.02,9.87,21.18,27.90,-43.04,-0.01,-0.49,-0.05
0.36,0.56,10.19,18.87,29.13,-43.47,-0.08,-0.47,-1.34
0.44,0.16,10.36,17.96,29.26,-43.50,-0.12,-0.53,-1.39
0.39,0.52,9.48,17.86,29.96,-43.55,-0.01,-0.11,-0.97
0.85,0.09,9.94,17.92,30.40,-43.55,-0.00,-0.31,-0.56
1.29,-0.05,9.51,16.81,31.66,-43.60,0.02,-0.27,-0.56
0.88,-1.28,10.09,16.27,31.77,-43.22,-0.07,-0.26,-0.99
0.10,-0.34,8.89,16.28,32.37,-43.44,-0.09,-0.13,-0.94
0.05,-0.78,10.06,15.83,32.65,-43.31,-0.03,-0.39,-0.38
0.38,1.11,10.21,15.89,32.94,-43.48,-0.02,-0.45,-0.51
0.84,0.10,10.32,15.77,33.37,-43.16,-0.08,-0.37,-0.66
0.06,1.74,9.78,15.07,33.41,-43.39,-0.12,-0.28,-1.00
0.43,-1.00,8.61,14.29,33.59,-43.36,-0.17,-0.26,-1.67
-0.07,-0.77,10.33,13.33,34.24,-43.17,-0.06,-0.36,-0.92
0.53,0.24,9.99,13.10,34.43,-43.01,-0.03,-0.38,-0.28
0.37,-0.01,10.05,12.93,34.62,-43.04,-0.05,-0.37,-0.58
0.29,-0.19,10.72,12.25,34.64,-42.62,-0.11,-0.49,-0.74
0.48,1.47,9.81,12.15,34.55,-43.31,-0.15,-0.49,-0.49
1.86,-1.14,10.90,11.53,34.84,-43.26,-0.07,-0.39,-1.08
0.52,-0.55,10.42,10.99,35.81,-42.43,-0.11,-0.40,-0.81
1.69,-0.06,10.96,10.45,35.49,-43.07,-0.03,-0.38,-0.81
-1.14,-1.06,11.28,9.60,35.71,-42.39,-0.10,-0.47,-1.59
0.12,0.39,10.37,8.58,35.31,-43.00,-0.23,-0.54,-1.65
1.02,-0.64,11.30,7.78,35.59,-42.98,-0.18,-0.48,-1.65
-0.77,-0.06,11.15,6.77,35.79,-44.07,-0.13,-0.46,-1.72
0.65,-0.32,9.98,5.00,35.95,-43.88,-0.10,-0.36,-1.69
1.83,-0.42,11.16,4.60,36.00,-43.63,-0.14,-0.28,-1.53
0.43,0.27,9.47,3.04,36.50,-43.61,-0.20,-0.41,-1.68
-0.76,-1.57,10.87,2.57,35.90,-44.20,-0.13,-0.35,-1.77
0.16,1.11,8.69,1.40,35.59,-44.42,-0.08,-0.46,-1.97
3.72,1.72,10.18,0.37,36.19,-43.91,-0.16,-0.30,-1.62
-0.32,-0.75,9.30,-1.30,35.93,-43.92,-0.12,-0.30,-1.21
-0.70,0.45,8.15,-1.59,35.59,-44.17,-0.17,-0.45,-1.64
0.13,-0.90,10.31,-2.81,35.79,-44.72,-0.09,-0.50,-1.27
1.44,0.13,9.73,-3.95,35.34,-44.27,-0.07,-0.41,-0.49
0.54,0.55,10.39,-4.08,34.79,-44.45,-0.10,-0.38,-1.01
-0.52,0.37,10.40,-4.27,34.60,-45.10,-0.13,-0.44,-1.40
-0.95,2.08,9.88,-5.36,34.30,-44.74,-0.14,-0.45,-1.36
-0.16,-0.34,10.07,-6.04,34.03,-44.27,-0.08,-0.46,-0.82
0.76,0.09,9.88,-6.43,33.76,-45.38,-0.08,-0.51,-0.82
1.26,-0.04,9.32,-7.29,33.50,-44.71,-0.14,-0.45,-1.36
0.42,0.55,9.55,-8.43,32.89,-44.20,-0.16,-0.43,-2.36
-1.71,-1.23,9.04,-9.28,32.33,-44.77,-0.23,-0.59,-2.49
0.32,0.13,9.92,-10.96,31.45,-45.92,-0.12,-0.31,-1.57
0.36,0.21,10.45,-11.39,30.47,-44.77,-0.12,-0.21,-0.98
0.01,0.22,9.82,-11.50,30.25,-45.15,-0.13,-0.27,-1.26
0.47,-0.01,9.60,-12.16,29.63,-45.78,-0.14,-0.35,-1.39
0.27,-0.16,9.83,-13.23,28.63,-45.37,-0.11,-0.39,-1.08
0.07,-0.18,9.76,-12.99,28.34,-45.56,-0.09,-0.25,-0.72
0.55,0.18,9.83,-13.27,28.03,-45.98,-0.09,-0.30,-0.64
0.14,-0.01,9.42,-13.90,27.55,-45.12,-0.12,-0.43,-0.79
-0.41,0.42,11.41,-14.45,27.62,-45.75,-0.05,-0.40,-0.43
0.99,-1.17,10.03,-15.48,26.82,-46.19,-0.04,-0.36,-0.73
-0.11,1.05,9.20,-15.38,26.41,-45.28,-0.07,-0.51,-1.10
0.63,-0.57,9.89,-16.14,25.52,-45.69,-0.09,-0.43,-1.19
0.04,-0.42,10.54,-16.06,24.89,-45.43,-0.04,-0.43,-0.76
0.44,0.27,10.14,-16.28,24.03,-45.78,-0.07,-0.35,-0.59
0.71,0.16,10.08,-16.69,24.31,-44.69,-0.07,-0.44,-0.67
0.73,0.28,10.42,-17.06,23.41,-45.13,-0.09,-0.49,-0.75
0.57,0.42,10.18,-16.97,22.99,-45.00,-0.09,-0.44,-0.85
0.70,0.26,10.40,-17.25,22.46,-45.83,-0.11,-0.41,-0.92
0.78,0.68,9.96,-17.25,21.81,-45.19,-0.09,-0.51,-1.01
0.37,0.45,10.04,-17.76,21.32,-44.96,-0.13,-0.55,-1.28
0.62,0.06,10.26,-18.25,20.51,-44.58,-0.18,-0.60,-1.48
0.04,-0.04,10.01,-18.87,19.57,-44.55,-0.17,-0.33,-1.39
-0.04,0.36,8.32,-19.01,18.52,-44.61,-0.13,-0.45,-1.36
0.66,0.23,9.35,-19.13,18.15,-45.38,-0.12,-0.47,-1.31
0.50,-0.76,10.63,-19.34,17.07,-45.26,-0.11,-0.42,-1.31
1.22,-0.01,9.74,-19.58,16.79,-44.72,-0.01,-0.17,-0.85
0.20,-0.33,10.39,-19.39,15.61,-44.64,-0.11,-0.47,-1.15
1.64,-0.01,10.27,-19.70,14.76,-45.40,-0.09,-0.41,-1.13
-1.67,-0.07,10.83,-19.99,14.15,-45.12,-0.05,-0.34,-0.96
0.34,0.24,10.84,-19.32,13.75,-45.26,-0.04,-0.20,-0.69
0.68,0.19,9.73,-19.83,13.07,-45.40,-0.05,-0.33,-0.72
0.31,0.67,10.29,-19.50,12.32,-45.31,-0.04,-0.40,-0.68
0.14,-0.13,9.80,-18.97,12.47,-45.31,-0.08,-0.31,-0.76
0.17,-0.06,9.99,-18.43,12.01,-45.53,-0.04,-0.33,-0.53
0.32,0.03,9.93,-18.85,11.43,-45.75,-0.05,-0.29,-0.41
0.50,-0.19,10.11,-18.71,10.89,-45.18,-0.02,-0.38,-0.32
0.23,0.67,9.93,-18.75,11.02,-45.48,-0.05,-0.45,-0.50
0.49,-0.08,10.21,-19.12,10.10,-45.31,-0.08,-0.55,-0.92
0.10,-0.12,10.02,-19.37,9.15,-45.64,-0.11,-0.32,-1.01
0.71,0.38,9.86,-18.97,8.90,-45.50,-0.13,-0.54,-0.93
1.84,0.51,9.89,-19.32,8.73,-45.44,-0.16,-0.52,-1.13
0.92,-0.28,11.09,-19.06,7.16,-45.48,-0.12,-0.51,-1.57
1.77,0.04,10.57,-18.33,6.45,-45.13,-0.10,-0.07,-1.93
0.29,0.02,10.34,-17.25,4.82,-45.48,-0.05,-0.57,-1.88
1.03,0.51,10.09,-17.51,4.08,-45.67,-0.11,-0.53,-1.56
0.78,-0.04,9.82,-17.11,2.95,-45.02,-0.10,-0.46,-1.45
0.27,0.44,10.34,-16.34,2.06,-45.54,-0.14,-0.23,-1.65
-0.74,-0.02,9.92,-15.80,1.02,-45.05,-0.07,-0.43,-1.10
0.34,0.19,9.79,-15.54,0.72,-45.12,-0.02,-0.39,-0.73
-0.26,0.11,10.60,-15.46,0.25,-44.62,-0.05,-0.36,-0.57
0.88,-0.04,9.91,-14.57,-0.25,-45.02,-0.09,-0.47,-0.53
0.60,0.00,9.66,-15.42,-0.25,-44.65,-0.03,-0.35,-0.64
-0.06,-0.06,9.86,-15.13,-1.08,-44.34,-0.06,-0.34,-0.46
-0.28,0.34,10.19,-14.60,-0.86,-44.80,-0.09,-0.33,-0.29
0.85,0.16,9.94,-14.56,-1.55,-45.25,-0.04,-0.40,-0.57
0.34,0.14,9.73,-13.93,-1.81,-44.80,-0.08,-0.47,-0.62
0.68,0.42,10.21,-13.93,-2.21,-45.13,-0.07,-0.37,-0.56
-0.04,0.05,10.24,-12.57,-3.83,-44.91,-0.07,-0.40,-0.67
-0.27,-0.16,10.02,-11.85,-4.18,-44.77,-0.05,-0.38,-0.71
0.24,-0.25,10.12,-12.17,-4.18,-44.58,-0.04,-0.42,-0.83
0.42,0.39,9.59,-11.50,-4.50,-45.02,-0.08,-0.42,-1.10
-0.72,-1.00,9.60,-11.06,-5.38,-44.87,-0.06,-0.61,-0.92
0.13,0.17,9.95,-10.96,-5.42,-44.81,-0.03,-0.57,-0.62
0.33,0.02,9.81,-10.83,-5.39,-44.61,-0.03,-0.23,-0.30
0.37,0.26,10.15,-10.19,-5.82,-44.90,-0.02,-0.18,-0.27
0.47,0.01,9.88,-9.81,-6.26,-44.99,-0.03,-0.40,-0.56
-0.14,-0.07,10.23,-10.11,-6.14,-44.99,-0.08,-0.49,-0.64
0.42,0.39,10.11,-9.37,-6.65,-44.58,-0.07,-0.32,-0.43
0.29,0.40,10.34,-8.64,-7.12,-44.43,-0.05,-0.30,-0.44
0.22,0.50,10.38,-8.32,-7.13,-45.10,-0.03,-0.48,-0.89
0.47,0.50,10.02,-7.69,-7.37,-44.72,-0.06,-0.66,-1.47
0.01,-0.08,10.34,-7.61,-8.14,-44.53,-0.17,-1.04,-1.50
0.72,-0.50,10.16,-7.25,-8.13,-44.86,-0.08,-0.29,-0.88
0.62,0.00,10.66,-6.69,-8.62,-44.07,-0.06,-0.53,-0.70
-0.23,-0.57,10.14,-6.39,-8.77,-41.26,-0.06,0.13,-0.52
-0.73,-0.07,9.44,-4.00,-9.24,-44.94,-0.20,1.93,0.20
-0.59,0.56,10.80,-4.71,-8.83,-45.10,-0.10,-0.33,0.13
-1.65,1.33,12.57,-4.68,-9.05,-44.26,-0.07,-0.77,0.15
0.01,0.26,10.44,-4.69,-8.92,-44.99,0.00,-0.41,0.08
0.39,0.08,10.14,-4.60,-8.84,-44.67,-0.00,-0.36,0.06
0.80,-0.05,9.74,-4.15,-8.96,-44.31,-0.00,-0.36,0.06
0.55,-0.12,9.90,-4.46,-8.81,-44.77,-0.01,-0.42,0.06
0.33,-0.06,10.06,-4.02,-8.83,-45.00,-0.02,-0.41,0.06
0.57,0.05,10.27,-4.19,-8.96,-44.65,-0.03,-0.38,0.06
0.55,0.14,10.00,-4.06,-9.22,-44.71,-0.02,-0.38,0.06
0.56,0.24,9.96,-4.43,-9.08,-44.71,-0.03,-0.40,0.06
0.46,0.25,10.18,-3.80,-8.97,-44.33,-0.01,-0.40,0.06
0.57,0.19,9.90,-4.24,-8.86,-44.61,-0.01,-0.38,0.06
0.62,-0.06,10.06,-4.79,-9.08,-44.12,-0.01,-0.39,0.05
0.49,-0.06,9.93,-4.17,-9.46,-45.03,-0.01,-0.40,0.06
0.48,-0.05,9.94,-4.55,-9.05,-44.62,-0.02,-0.39,0.06
0.52,0.02,10.03,-4.41,-9.37,-44.91,-0.02,-0.39,0.05
0.06,0.49,10.22,-4.31,-9.24,-45.03,-0.05,-0.40,0.07
0.99,0.01,9.96,-4.55,-9.38,-45.02,-0.01,-0.39,0.06
0.52,0.27,9.78,-4.30,-9.21,-43.89,-0.02,-0.40,0.06
0.34,0.21,10.08,-4.52,-8.87,-43.85,-0.02,-0.42,0.05
0.59,-0.09,10.02,-4.52,-9.21,-44.59,-0.05,-0.34,0.05
0.46,-0.13,9.90,-4.49,-8.96,-44.86,-0.06,-0.36,-0.14
0.01,0.42,10.11,-4.36,-9.00,-44.58,-0.06,-0.32,-0.50
0.29,0.04,10.07,-4.08,-9.31,-44.67,-0.04,-0.39,-0.71
0.67,0.44,8.78,-3.38,-9.28,-45.45,-0.06,-0.49,-0.71
-0.01,0.57,10.04,-3.27,-9.70,-44.46,-0.10,-0.42,-0.70
0.90,0.77,9.40,-2.19,-10.14,-44.80,-0.12,-0.42,-1.36
1.27,-0.18,9.94,-1.39,-10.14,-45.07,-0.13,-0.25,-1.18
0.90,0.09,10.23,-0.83,-10.11,-44.94,-0.09,-0.26,-0.71
0.75,-0.23,9.25,0.75,-10.10,-44.58,-0.13,-0.36,-1.03
0.56,-0.39,10.62,1.26,-10.46,-44.36,-0.17,-0.42,-1.03
-0.02,0.77,10.41,2.25,-11.30,-44.56,-0.06,-0.43,-0.04
0.27,0.06,10.16,2.31,-11.27,-43.61,-0.05,-0.39,0.02
0.70,0.27,9.98,2.38,-11.65,-44.29,-0.09,-0.47,-0.82
0.95,0.15,10.81,3.36,-11.25,-43.92,-0.15,-0.48,-1.78
2.86,0.28,9.49,4.62,-11.75,-43.39,-0.19,-0.45,-1.38
-0.25,0.19,10.55,5.01,-12.01,-43.92,-0.03,-0.44,-0.17
-0.34,0.34,10.83,5.06,-11.98,-44.31,-0.04,-0.60,-0.49
-0.83,0.25,9.17,5.66,-12.22,-43.96,-0.08,-0.43,-1.07
0.99,0.73,9.35,6.62,-12.09,-44.21,-0.07,-0.46,-0.95
0.58,0.39,9.72,6.91,-12.00,-43.55,-0.04,-0.57,-0.58
0.31,0.03,10.22,7.56,-11.87,-44.04,-0.06,-0.50,-0.72
-0.38,0.13,10.22,7.64,-11.47,-43.69,-0.06,-0.47,-0.78
-0.07,0.06,10.44,7.78,-11.17,-43.54,-0.07,-0.39,-0.48
0.52,0.07,9.78,8.36,-11.28,-43.83,-0.07,-0.38,-0.13
-0.21,0.45,10.17,9.37,-11.50,-44.07,-0.07,-0.34,-0.26
0.04,-0.12,10.13,9.22,-11.63,-43.73,-0.04,-0.40,-0.26
-0.45,0.93,9.63,9.43,-11.34,-44.04,-0.08,-0.35,-1.03
0.05,-0.04,9.40,9.60,-10.95,-43.61,-0.08,-0.42,-0.84
0.62,0.28,9.20,10.71,-11.47,-43.28,-0.06,-0.42,-0.52
0.90,0.36,10.36,10.60,-11.06,-43.12,-0.05,-0.44,-0.58
0.88,0.21,9.54,11.09,-11.02,-43.60,-0.03,-0.41,-0.56
0.38,0.54,9.14,11.22,-10.96,-43.54,-0.06,-0.49,-0.83
1.59,-0.75,8.83,11.72,-10.74,-43.10,-0.05,-0.44,-0.76
0.70,0.32,9.41,11.96,-10.39,-43.51,-0.03,-0.43,-0.58
0.11,0.29,10.11,12.16,-10.64,-43.15,-0.06,-0.42,-0.43
0.09,0.13,10.04,12.35,-10.73,-43.45,-0.07,-0.43,-0.71
0.25,-0.13,9.99,12.92,-10.11,-42.69,-0.07,-0.50,-0.74
0.36,0.01,9.92,12.82,-10.23,-43.36,-0.04,-0.42,-0.27
0.09,0.27,10.35,13.23,-10.96,-43.19,-0.04,-0.41,-0.16
0.35,0.45,9.72,13.48,-10.04,-43.04,-0.06,-0.46,-0.42
0.43,-1.63,10.06,13.75,-9.46,-43.12,-0.07,-0.39,-0.78
0.21,0.19,9.72,14.57,-9.87,-42.94,-0.09,-0.32,-0.65
0.34,-0.03,10.24,14.86,-9.79,-43.76,-0.03,-0.31,-0.33
0.64,0.09,10.05,15.00,-9.57,-43.61,-0.05,-0.34,-0.41
-0.09,0.04,10.17,15.62,-9.65,-42.41,-0.08,-0.33,-0.80
-0.27,0.24,9.99,16.28,-8.78,-42.90,-0.05,-0.40,-1.03
0.01,-0.06,9.92,16.71,-8.81,-42.72,-0.08,-0.26,-0.97
0.50,0.03,10.00,17.54,-8.61,-43.83,-0.05,-0.31,-0.50
0.31,0.26,10.25,17.39,-7.88,-43.42,-0.07,-0.27,-0.81
0.16,0.19,10.20,18.33,-7.57,-42.30,-0.09,-0.36,-0.95
-0.15,0.09,10.27,18.34,-7.59,-43.64,-0.10,-0.36,-0.94
0.51,0.14,9.91,19.48,-7.25,-42.62,-0.07,-0.44,-0.60
0.63,-0.12,9.84,19.72,-6.58,-42.53,-0.05,-0.45,-0.50
0.43,0.24,9.90,19.70,-5.99,-42.65,-0.03,-0.47,-0.47
-0.35,0.33,10.31,20.04,-5.99,-41.79,-0.08,-0.32,-0.69
0.04,0.17,10.16,20.72,-5.85,-42.36,-0.10,-0.32,-0.67
0.60,0.19,10.05,20.87,-5.38,-42.62,-0.09,-0.33,-0.69
0.51,0.33,10.26,21.48,-5.01,-42.09,-0.08,-0.40,-0.65
0.66,0.30,10.04,22.03,-4.66,-42.11,-0.10,-0.31,-0.76
0.73,0.14,10.01,22.33,-4.31,-41.46,-0.12,-0.21,-0.93
0.75,0.73,9.92,22.99,-3.49,-42.17,-0.10,-0.49,-0.85
0.78,-0.36,9.92,23.66,-3.54,-42.20,-0.11,-0.46,-0.84
0.37,0.60,11.01,23.66,-2.95,-42.36,-0.11,-0.47,-0.73
0.24,0.19,9.52,24.44,-2.63,-42.60,-0.06,-0.44,-0.59
0.07,-0.03,10.37,24.54,-1.67,-42.17,-0.11,-0.38,-0.86
1.30,0.29,9.24,24.64,-1.56,-42.46,-0.11,-0.34,-0.80
0.30,-0.43,10.38,24.47,-1.72,-42.79,-0.05,-0.38,-0.32
0.22,0.20,10.19,24.60,-1.04,-42.77,-0.04,-0.46,-0.10
0.50,0.22,9.88,24.76,-0.91,-42.39,-0.06,-0.41,-0.35
0.56,0.27,9.83,24.96,-0.77,-41.60,-0.06,-0.47,-0.28
0.40,0.10,9.82,25.55,-0.83,-41.83,-0.05,-0.49,-0.24
0.03,0.32,10.25,25.05,-0.32,-42.05,-0.07,-0.43,-0.54
0.28,0.28,9.89,25.46,0.19,-41.73,0.05,-0.30,-0.86
2.53,-0.62,8.98,25.27,0.73,-41.57,-0.06,-0.49,-0.52
0.05,0.18,10.64,25.53,0.38,-42.87,0.01,-0.73,-0.05
-0.49,-0.01,10.77,25.27,0.69,-42.46,-0.09,-0.61,-0.49
0.75,0.17,9.90,25.46,1.11,-43.00,-0.12,-0.42,-1.02
-0.34,0.26,10.61,25.59,2.37,-43.88,-0.08,-0.23,-1.07
0.59,0.20,9.97,25.80,2.54,-41.96,-0.06,-0.13,-0.84
0.52,0.19,10.13,26.69,3.26,-42.88,-0.04,-0.39,-0.51
-0.04,0.49,10.45,26.26,3.87,-42.50,-0.06,-0.45,-0.61
0.10,0.22,9.81,26.79,3.98,-42.47,-0.10,-0.29,-0.69
0.80,0.27,9.63,26.62,4.31,-42.30,-0.06,-0.19,-0.79
0.48,0.23,10.04,26.70,5.20,-41.95,-0.04,-0.38,-0.68
0.49,0.19,10.17,26.73,5.23,-42.01,-0.05,-0.38,-0.76
0.77,0.62,9.61,26.94,5.54,-41.60,-0.06,-0.34,-0.82
0.78,-0.19,10.57,27.39,6.77,-42.02,-0.06,-0.33,-0.76
0.67,0.06,9.76,27.13,7.60,-42.44,-0.05,-0.38,-0.61
0.35,0.09,10.33,27.24,7.75,-41.67,-0.05,-0.40,-0.41
0.65,-0.06,9.40,27.07,7.91,-42.77,-0.03,-0.42,-0.38
0.18,0.37,10.49,26.92,7.73,-42.12,-0.10,-0.42,-0.64
0.09,0.24,9.32,27.04,8.74,-43.45,-0.03,-0.43,-0.50
-0.09,0.33,10.26,27.59,9.49,-42.72,-0.05,-0.43,-0.45
0.45,0.37,9.98,27.32,9.34,-42.58,-0.06,-0.39,-0.54
0.40,-0.43,9.66,27.24,9.41,-42.78,-0.06,-0.35,-0.69
0.85,-0.34,10.18,26.94,10.20,-42.68,-0.08,-0.44,-0.47
-0.07,0.31,10.43,27.51,10.23,-42.20,-0.04,-0.39,-0.45
0.50,0.32,10.24,27.11,10.63,-42.66,-0.07,-0.39,-0.63
0.04,1.72,9.62,27.08,10.80,-42.09,-0.05,-0.41,-0.68
0.95,0.37,9.97,27.51,11.22,-42.31,-0.04,-0.38,-0.52
0.49,0.18,10.46,27.35,11.79,-42.50,-0.05,-0.47,-0.39
0.70,0.36,9.76,27.32,12.06,-42.68,-0.09,-0.38,-0.73
0.34,0.51,10.09,27.19,13.59,-43.01,-0.08,-0.28,-0.97
-0.15,-0.10,9.62,27.07,14.10,-42.34,-0.09,-0.44,-0.57
0.49,0.36,10.11,26.78,14.57,-42.87,-0.07,-0.44,-0.70
0.26,0.00,10.03,26.85,15.26,-43.38,-0.06,-0.42,-0.71
0.03,-0.12,10.43,26.47,15.11,-42.71,-0.10,-0.42,-0.70
0.06,-0.03,10.01,26.95,15.58,-42.58,-0.07,-0.36,-0.81
0.87,-0.14,9.81,26.86,16.35,-43.58,-0.00,-0.25,-0.72
0.26,0.47,11.08,26.56,16.92,-42.85,-0.03,-0.31,-0.68
0.06,0.41,10.03,26.70,18.23,-41.86,-0.11,-0.38,-0.80
0.71,0.45,10.47,26.13,18.31,-42.31,-0.10,-0.35,-0.95
-0.14,-0.33,10.14,25.65,19.16,-42.08,-0.10,-0.33,-0.93
0.93,0.34,10.01,25.33,19.64,-42.49,-0.13,-0.36,-1.06
-0.10,0.45,10.49,24.99,20.33,-42.63,-0.06,-0.39,-1.06
0.22,1.72,9.60,24.88,20.99,-42.18,-0.11,-0.40,-0.86
0.24,-0.40,10.42,24.96,21.81,-42.71,-0.13,-0.38,-1.16
1.90,0.25,9.35,24.42,22.51,-42.52,-0.05,-0.36,-0.73
0.57,-0.10,10.40,23.93,22.68,-42.75,-0.06,-0.41,-0.17
-1.28,-0.60,10.60,23.97,22.45,-42.58,-0.10,-0.53,0.05
0.08,0.34,9.36,23.84,22.55,-42.18,-0.05,-0.36,0.07
0.51,-0.03,10.09,24.39,22.13,-42.53,0.01,-0.35,0.06
0.57,1.78,10.10,24.39,22.55,-42.60,-0.04,-0.41,0.05
0.59,0.16,9.94,23.76,22.64,-42.20,-0.02,-0.41,0.06
0.21,0.11,10.22,24.03,22.49,-41.17,-0.02,-0.40,0.06
0.39,0.14,10.08,24.25,22.81,-42.11,-0.02,-0.39,0.06
0.39,0.06,10.14,24.28,22.51,-41.98,-0.00,-0.38,0.06
0.51,0.06,10.06,24.16,22.62,-41.99,-0.02,-0.39,0.06
0.49,0.02,10.04,24.35,22.58,-41.64,-0.02,-0.39,0.06
0.49,0.07,10.04,24.63,22.46,-41.71,-0.02,-0.40,0.06
0.52,0.10,10.01,23.75,22.49,-42.12,-0.02,-0.39,0.06
0.45,0.07,10.14,24.20,22.46,-41.87,-0.02,-0.39,0.06
0.52,0.11,9.91,24.38,22.30,-41.93,-0.02,-0.40,0.06
0.41,0.09,10.10,24.48,22.42,-41.89,-0.01,-0.39,0.06
0.48,0.11,10.11,25.18,22.16,-41.68,-0.02,-0.40,0.06
0.39,0.01,10.05,24.20,22.49,-42.14,-0.02,-0.39,0.06
0.45,0.05,10.09,24.42,21.94,-41.63,-0.02,-0.39,0.06
0.47,-0.02,9.93,24.25,22.74,-41.92,-0.02,-0.40,0.06
0.35,0.10,10.05,24.25,22.65,-42.09,-0.02,-0.39,0.06
0.50,0.11,9.99,24.07,22.51,-41.57,-0.02,-0.40,0.06
0.50,0.02,10.08,24.23,22.16,-42.02,-0.02,-0.39,0.06
0.44,0.04,10.13,24.01,22.26,-41.68,-0.02,-0.40,0.06
0.47,-1.77,10.04,23.72,22.49,-41.87,-0.02,-0.39,0.06
0.47,0.07,10.17,23.98,22.52,-41.71,-0.02,-0.40,0.06
0.46,0.03,9.98,23.97,22.45,-42.22,-0.02,-0.39,0.06
0.46,0.07,10.14,23.85,22.68,-42.43,-0.02,-0.39,0.06
0.42,-0.01,10.22,24.23,22.57,-42.17,-0.01,-0.39,0.06
0.50,0.08,10.11,23.75,22.52,-42.28,-0.02,-0.40,0.06
0.44,0.11,10.02,23.68,23.08,-42.02,-0.02,-0.40,0.06
0.32,0.01,9.90,23.65,23.09,-42.30,-0.02,-0.38,0.06
0.41,-1.82,9.93,23.69,23.17,-42.41,-0.02,-0.39,0.06
0.48,0.12,10.04,23.84,22.39,-42.88,-0.02,-0.40,0.06
0.43,0.14,10.09,23.74,22.22,-42.09,-0.01,-0.40,0.06
0.32,0.04,10.01,23.98,22.70,-42.96,-0.02,-0.40,0.06
0.41,0.02,10.04,24.04,22.61,-41.70,-0.02,-0.39,0.06
0.47,0.10,10.02,24.12,22.58,-42.44,-0.01,-0.39,0.06
0.41,0.02,10.09,24.10,22.71,-42.05,-0.01,-0.40,0.06
0.42,0.08,10.01,24.28,22.52,-41.51,-0.02,-0.40,0.06
0.32,0.14,10.08,23.87,23.14,-41.33,-0.02,-0.39,0.06
0.52,0.01,10.07,24.25,23.19,-42.47,-0.02,-0.39,0.06
0.48,0.05,9.91,24.45,22.86,-42.15,-0.01,-0.39,0.06
0.52,0.04,10.09,23.69,22.64,-42.44,-0.01,-0.39,0.06
0.49,0.09,10.00,23.95,22.74,-42.36,-0.02,-0.40,0.06
4.23,0.13,11.21,24.42,22.39,-42.84,0.12,-1.30,-0.05
-3.37,-1.39,10.69,22.77,22.57,-42.81,-0.10,-0.83,0.04
-2.05,-2.40,12.29,22.80,23.03,-42.93,-0.13,-0.11,0.05
5.20,-0.89,9.04,24.39,22.92,-42.69,0.25,0.42,0.07
0.67,0.71,10.55,24.64,22.46,-41.93,0.06,-0.31,-0.04
0.14,-1.86,6.09,23.84,23.08,-42.14,-0.15,-0.67,0.16
1.74,0.09,10.60,24.04,22.98,-41.38,0.01,-0.41,0.02
-3.24,0.59,10.58,24.06,23.59,-41.67,-0.11,-0.52,-0.26
-3.32,0.22,8.56,23.18,23.62,-42.01,-0.12,-0.56,-0.55
0.80,0.28,10.55,23.22,23.85,-42.18,-0.18,-0.72,-0.96
0.15,0.36,10.29,22.73,24.22,-43.34,-0.19,-1.24,-1.13
-0.19,0.72,9.50,20.58,24.89,-43.85,-0.15,-0.74,-0.94
0.48,-0.09,10.65,19.99,25.80,-44.55,-0.05,-0.22,-1.00
-3.19,1.03,10.20,19.69,26.45,-44.24,-0.11,-0.42,-1.12
-2.76,0.57,9.95,19.31,26.98,-44.33,-0.08,-0.63,-1.57
-0.09,0.05,10.41,18.43,27.29,-44.07,-0.06,-0.40,-1.54
0.48,0.01,9.60,17.96,28.82,-43.96,-0.02,-0.21,-1.15
0.19,0.14,10.61,17.86,28.82,-43.17,-0.11,-0.47,-1.18
0.56,0.27,10.02,17.07,29.16,-43.47,-0.05,-0.40,-1.14
-0.05,-0.31,10.14,15.92,29.83,-43.50,-0.02,-0.11,-1.04
0.08,0.43,10.06,16.18,30.71,-43.44,-0.04,-0.33,-0.94
-0.70,0.49,9.96,15.62,31.09,-43.61,-0.08,-0.34,-1.21
0.23,0.39,9.71,14.60,31.32,-43.86,-0.09,-0.58,-1.66
0.15,0.04,10.37,13.99,31.86,-42.79,-0.10,-0.44,-1.72
0.10,0.12,9.91,13.36,32.91,-42.69,-0.07,-0.43,-1.47
0.04,0.14,10.21,12.91,33.15,-44.23,-0.02,-0.11,-0.97
0.21,0.44,10.30,12.57,33.05,-43.09,-0.05,-0.26,-0.54
0.70,0.22,9.91,12.15,32.93,-42.77,-0.02,-0.25,-0.24
-0.12,0.24,10.08,11.91,33.65,-42.63,-0.02,-0.39,-0.57
0.29,-0.14,10.35,11.69,33.70,-43.07,-0.04,-0.34,-0.58
0.37,-0.03,10.21,11.50,33.97,-43.17,-0.05,-0.22,-0.44
0.19,0.17,10.17,11.15,33.91,-43.13,-0.06,-0.22,-0.59
0.46,0.13,9.67,11.36,33.81,-42.62,-0.11,-0.23,-0.55
0.34,0.62,10.08,11.33,34.11,-42.74,-0.09,-0.46,-0.86
0.54,-0.01,9.72,10.42,34.57,-42.85,-0.08,-0.33,-0.81
-0.59,0.14,9.77,9.87,34.58,-42.71,-0.02,-0.35,-0.63
-0.02,0.25,9.87,9.44,34.90,-43.41,-0.05,-0.28,-0.94
1.08,0.67,9.85,8.65,35.19,-43.03,-0.15,-0.44,-0.92
0.59,0.01,10.60,7.76,35.62,-43.39,-0.13,-0.38,-1.11
0.55,0.55,10.86,7.25,35.36,-42.91,-0.15,-0.26,-1.33
0.41,-0.22,9.23,6.39,35.74,-42.72,-0.14,-0.32,-1.31
1.00,0.42,10.62,6.24,35.53,-42.79,-0.14,-0.36,-1.20
0.59,-0.02,10.12,5.44,35.84,-43.13,-0.05,-0.42,-1.05
0.47,-0.26,10.19,4.30,35.49,-43.34,-0.08,-0.36,-0.96
1.11,0.75,9.88,3.92,35.37,-42.98,-0.06,-0.42,-0.64
0.47,0.34,10.03,3.90,35.55,-43.19,-0.05,-0.40,-0.35
0.30,-0.03,10.01,3.70,35.63,-43.42,-0.04,-0.43,-0.35
0.34,0.04,10.20,3.60,35.56,-44.20,-0.03,-0.39,0.06
0.58,0.09,10.20,3.70,35.76,-43.41,-0.02,-0.41,0.06
0.52,0.06,10.18,3.48,35.72,-43.57,-0.02,-0.38,0.06
0.54,-0.05,9.82,3.29,35.37,-43.61,-0.02,-0.39,0.06
0.35,0.24,10.24,3.23,35.97,-43.17,-0.01,-0.40,0.06
0.70,0.03,9.85,3.35,35.31,-42.90,-0.02,-0.40,0.06
0.55,0.14,10.13,3.54,35.40,-43.04,-0.02,-0.40,0.06
0.32,0.13,10.04,3.45,35.46,-43.60,-0.02,-0.39,0.06
0.51,0.15,9.93,3.01,35.57,-43.22,-0.02,-0.40,0.06
0.44,0.06,10.21,3.76,35.72,-42.69,-0.02,-0.39,0.06
0.42,0.05,10.16,3.54,35.53,-43.80,-0.02,-0.39,0.06
0.39,0.05,10.04,3.65,35.81,-43.15,-0.02,-0.40,0.05
0.70,0.25,8.92,3.32,35.78,-43.45,0.00,-0.55,-0.03
-0.04,0.39,10.68,3.42,36.06,-43.15,-0.07,-0.66,-0.92
0.19,-0.02,10.16,2.86,35.65,-42.52,-0.12,0.15,-1.22
1.41,1.23,9.71,2.38,35.69,-43.53,-0.13,-0.22,-1.17
2.02,-0.03,10.98,1.04,35.30,-44.11,-0.09,-0.33,-0.92
0.45,0.34,9.66,1.07,35.17,-43.63,-0.12,-0.46,-0.65
1.65,0.27,9.98,1.18,35.40,-43.76,-0.05,-0.36,-0.62
0.38,-0.73,10.27,-0.53,35.72,-43.91,-0.02,-0.43,-0.54
0.50,0.09,10.29,-1.34,35.60,-43.45,-0.06,-0.57,-0.45
0.22,-0.06,10.39,-1.33,35.38,-43.83,-0.02,-0.67,-0.16
0.25,0.26,9.95,-1.62,35.25,-43.13,-0.02,-0.42,0.00
0.04,0.29,10.35,-1.93,34.98,-43.60,-0.07,-0.37,-0.65
0.55,0.19,9.65,-1.78,34.76,-43.85,-0.10,-0.24,-0.85
0.75,-0.52,10.30,-2.47,34.83,-43.82,-0.10,-0.45,-1.29
0.25,0.21,9.68,-3.33,35.03,-43.88,-0.10,-0.41,-1.28
0.65,0.33,9.93,-3.99,34.60,-44.29,-0.07,-0.41,-0.74
-0.63,0.47,10.66,-4.63,34.33,-44.27,-0.11,-0.33,-0.98
0.02,0.02,9.78,-5.55,34.08,-43.89,-0.17,-0.10,-1.44
1.41,-0.19,10.01,-5.58,33.79,-44.30,-0.11,-0.48,-0.63
1.06,0.19,9.76,-5.93,33.86,-43.54,-0.08,-0.35,-0.54
0.73,-0.02,10.04,-6.30,33.54,-43.35,-0.07,-0.17,-0.70
-0.74,0.24,10.43,-6.53,33.73,-44.01,-0.09,-0.43,-0.71
0.04,0.06,9.96,-7.41,33.03,-44.10,-0.11,-0.42,-1.00
1.10,0.11,9.17,-7.79,33.13,-44.30,-0.18,-0.46,-1.49
1.43,-0.06,10.27,-8.67,32.67,-44.45,-0.16,-0.50,-1.35
0.60,-0.53,10.21,-10.14,32.46,-43.29,-0.10,-0.31,-1.21
1.21,0.25,11.35,-10.60,31.42,-44.42,-0.11,-0.39,-1.03
0.67,0.19,9.98,-10.96,31.07,-44.69,-0.09,-0.34,-0.74
0.62,0.18,9.91,-11.03,30.85,-44.96,-0.06,-0.37,-0.68
0.91,-0.19,9.90,-11.33,30.74,-44.65,-0.06,-0.41,-0.57
1.05,0.17,10.00,-11.79,30.40,-44.02,-0.04,-0.42,-0.52
0.08,0.36,10.45,-11.71,30.04,-44.78,-0.06,-0.50,-0.71
0.53,0.54,8.95,-12.63,29.25,-45.02,-0.08,-0.45,-0.95
1.09,-0.27,10.64,-12.98,28.91,-44.58,-0.06,-0.43,-0.93
1.39,-0.06,10.17,-13.11,28.57,-44.71,-0.12,-0.35,-1.23
0.33,0.76,10.89,-13.67,28.28,-44.49,-0.11,-0.24,-1.41
0.99,-0.60,9.88,-14.56,27.49,-45.21,-0.10,-0.49,-0.75
0.56,0.57,9.58,-14.72,27.01,-45.00,-0.12,-0.50,-0.48
0.29,0.57,9.61,-15.73,25.67,-44.68,-0.07,-0.35,-0.78
0.46,-0.11,10.25,-15.84,25.42,-44.91,-0.08,-0.42,-0.64
0.67,0.01,10.29,-15.58,24.99,-45.06,-0.06,-0.45,-0.57
0.39,0.06,10.44,-16.00,25.07,-44.61,-0.05,-0.43,-0.56
0.39,-0.01,10.12,-16.40,24.63,-44.99,-0.09,-0.40,-0.73
0.47,0.02,9.83,-16.69,24.07,-44.31,-0.09,-0.49,-0.72
0.14,-0.12,10.08,-16.65,23.62,-45.13,-0.10,-0.44,-0.73
1.04,-0.11,9.91,-16.65,23.44,-45.03,-0.04,-0.37,-0.57
0.95,0.06,9.83,-17.60,22.92,-45.06,-0.05,-0.42,-0.41
-0.27,0.23,10.16,-17.71,23.05,-45.29,-0.05,-0.45,-0.46
0.17,0.38,9.71,-17.33,22.54,-45.26,-0.05,-0.39,-0.47
0.50,0.16,9.96,-17.77,21.76,-45.07,-0.06,-0.41,-0.41
0.47,0.20,9.87,-17.51,21.72,-44.88,-0.04,-0.39,-0.26
0.40,-0.02,9.88,-18.15,21.46,-45.22,-0.06,-0.38,-0.53
0.44,0.18,9.98,-18.17,20.89,-45.76,-0.07,-0.39,-0.60
0.42,0.08,10.20,-17.80,20.56,-45.48,-0.07,-0.38,-0.68
0.85,0.30,9.58,-18.21,19.86,-45.45,-0.07,-0.42,-0.68
0.88,0.47,10.12,-18.49,20.18,-45.10,-0.08,-0.35,-0.68
0.08,-0.17,10.40,-18.58,19.06,-45.34,-0.09,-0.42,-0.75
0.37,0.10,10.14,-18.65,18.69,-45.13,-0.08,-0.39,-0.78
0.57,0.23,10.14,-18.77,17.80,-45.28,-0.09,-0.36,-0.70
0.74,0.67,10.16,-18.99,17.90,-45.06,-0.05,-0.33,-0.65
0.55,0.27,9.68,-18.43,17.09,-44.97,-0.08,-0.30,-0.70
0.21,0.35,9.93,-18.77,16.76,-45.48,-0.06,-0.35,-0.55
0.57,0.18,9.97,-18.96,16.69,-45.95,-0.04,-0.41,-0.29
0.50,0.06,10.09,-18.82,16.47,-45.51,-0.04,-0.38,-0.16
0.41,0.22,10.17,-18.53,16.33,-45.00,-0.05,-0.43,-0.16
0.45,-0.15,10.05,-18.56,15.93,-46.00,-0.05,-0.42,-0.39
0.78,-0.10,9.86,-18.47,15.61,-45.32,-0.07,-0.46,-0.59
0.54,-0.03,9.99,-18.59,15.33,-45.66,-0.07,-0.46,-0.54
0.50,0.19,9.78,-19.31,14.81,-46.14,-0.06,-0.44,-0.54
0.30,0.57,10.08,-19.48,14.32,-44.88,-0.05,-0.44,-0.59
0.47,0.24,10.42,-19.39,13.71,-45.67,-0.06,-0.36,-0.71
0.01,-0.15,10.46,-18.71,13.83,-44.64,-0.05,-0.40,-0.76
0.52,-0.06,9.64,-19.01,13.40,-45.82,-0.06,-0.42,-0.62
0.46,1.82,9.95,-19.20,12.76,-45.15,-0.06,-0.39,-0.50
0.47,0.01,9.86,-19.15,12.44,-45.57,-0.05,-0.42,-0.31
0.61,0.14,9.93,-19.51,12.04,-46.01,-0.05,-0.47,-0.31
0.20,0.15,10.24,-19.66,12.10,-45.19,-0.05,-0.48,-0.28
0.47,0.22,10.15,-19.09,11.63,-45.51,-0.04,-0.38,-0.15
0.52,0.08,10.05,-19.28,10.82,-45.22,-0.04,-0.37,-0.28
0.11,-0.06,10.16,-19.31,10.84,-45.02,-0.07,-0.39,-0.43
0.29,-0.03,9.88,-19.19,10.46,-45.29,-0.06,-0.34,-0.46
0.60,0.32,10.02,-19.29,10.79,-45.31,-0.07,-0.35,-0.51
0.05,-0.30,10.01,-19.06,10.01,-45.06,-0.07,-0.31,-0.65
0.14,0.34,9.87,-18.81,9.60,-44.96,-0.07,-0.34,-0.58
0.68,-0.05,9.29,-18.31,9.35,-44.96,-0.07,-0.37,-0.55
0.67,-0.25,10.13,-18.40,8.93,-44.97,-0.07,-0.47,-0.44
0.97,-0.15,9.85,-18.63,8.96,-45.06,-0.02,-0.43,-0.13
1.03,0.15,10.07,-18.15,8.24,-44.71,-0.03,-0.43,-0.07
0.36,0.68,9.93,-18.28,7.88,-46.02,-0.05,-0.37,-0.42
0.36,0.72,10.78,-18.31,7.32,-45.40,-0.05,-0.18,-0.48
-0.23,0.36,10.19,-17.68,7.12,-45.19,-0.06,-0.43,-0.15
0.60,0.18,10.04,-17.77,6.83,-45.73,-0.01,-0.45,0.05
-0.11,0.36,9.75,-18.27,6.90,-46.05,0.03,-0.27,0.09
0.24,0.18,10.00,-18.27,7.31,-45.44,0.31,-0.34,0.06
0.62,0.24,10.17,-17.92,6.74,-45.00,0.02,-0.34,0.06
0.75,-0.05,10.05,-17.86,6.28,-46.01,-0.01,-0.37,0.06
0.75,0.11,10.03,-17.87,6.99,-45.41,-0.02,-0.41,0.06
0.50,0.11,10.08,-18.04,7.15,-45.92,-0.02,-0.43,0.06
0.28,0.13,10.09,-18.09,6.84,-45.66,-0.02,-0.43,0.06
0.27,0.20,10.13,-17.52,6.78,-46.23,-0.02,-0.40,0.06
0.49,0.11,9.89,-18.01,7.47,-46.02,-0.02,-0.38,0.06
0.64,0.11,9.97,-17.64,7.42,-46.48,-0.02,-0.39,0.05
0.58,0.11,10.15,-17.92,7.15,-45.40,-0.02,-0.40,0.06
0.52,0.20,10.14,-17.85,6.90,-45.82,-0.02,-0.40,0.06
0.40,0.11,10.05,-17.57,7.23,-45.03,-0.02,-0.39,0.06
0.55,0.06,10.02,-17.90,7.04,-45.12,-0.03,-0.40,0.06
0.45,0.17,10.09,-17.61,6.91,-44.52,-0.02,-0.39,0.06
0.50,0.17,10.00,-17.79,6.85,-45.92,-0.01,-0.40,0.05
0.50,0.21,10.09,-17.70,7.28,-45.54,-0.02,-0.41,0.06
0.50,0.12,10.16,-17.32,6.65,-45.31,-0.01,-0.39,0.06
0.53,0.12,10.05,-17.67,7.32,-45.85,-0.02,-0.39,0.06
0.57,0.09,10.06,-17.32,7.09,-45.38,-0.02,-0.40,0.06
0.49,0.06,10.07,-17.29,7.18,-45.09,-0.02,-0.41,0.06
0.51,0.13,9.99,-17.51,6.97,-44.08,-0.02,-0.40,0.06
0.51,0.20,10.05,-17.83,6.61,-44.68,-0.02,-0.39,0.06
0.51,0.16,10.06,-18.20,7.26,-44.37,-0.02,-0.40,0.05
0.43,0.07,9.96,-17.92,6.99,-44.94,-0.01,-0.39,0.06
0.53,0.19,10.01,-17.98,7.28,-45.15,-0.01,-0.40,0.06
0.47,0.13,10.14,-17.76,7.06,-45.16,-0.02,-0.39,0.05
0.47,0.06,10.03,-17.57,7.06,-45.38,-0.02,-0.40,0.06
0.41,0.09,9.94,-17.86,7.06,-44.72,-0.02,-0.40,0.06
0.32,0.06,10.05,-18.21,6.75,-44.97,-0.02,-0.39,0.06
0.63,0.06,10.01,-18.12,6.88,-44.52,-0.02,-0.39,0.06
0.52,0.06,10.10,-17.87,7.16,-44.33,-0.01,-0.40,0.06
0.40,0.20,10.03,-17.70,7.41,-45.06,-0.02,-0.41,0.06
0.55,0.20,10.13,-18.17,7.19,-44.94,-0.02,-0.40,0.06
0.47,0.05,10.14,-18.02,7.12,-44.52,-0.02,-0.39,0.06
0.57,0.06,10.00,-17.67,7.03,-45.38,-0.02,-0.39,0.06
0.53,0.22,10.00,-17.52,7.28,-45.81,-0.02,-0.40,0.06
0.53,0.09,10.05,-17.71,7.09,-45.89,-0.02,-0.40,0.06
0.42,0.26,10.04,-18.25,7.29,-46.05,-0.02,-0.39,0.06
0.50,0.22,9.96,-18.08,7.59,-45.31,-0.02,-0.40,0.05
0.47,0.11,10.10,-18.04,7.13,-45.45,-0.02,-0.40,0.06
0.49,0.16,10.16,-17.89,7.25,-45.97,-0.02,-0.40,0.06
0.50,0.13,10.14,-17.93,7.04,-46.23,-0.02,-0.40,0.06
0.57,0.04,10.01,-17.89,6.69,-45.76,-0.02,-0.40,0.06
0.55,0.07,10.10,-17.64,7.07,-46.14,-0.02,-0.40,0.06
0.70,0.18,10.64,-17.89,6.75,-45.73,-0.10,-0.52,0.01
0.65,0.08,10.16,-18.28,7.18,-44.77,-0.05,-0.40,-0.02
0.51,0.24,9.96,-18.08,6.61,-44.87,-0.03,-0.44,-0.33
0.54,0.89,8.56,-18.12,6.12,-44.93,-0.08,-0.41,-0.85
0.71,-0.14,8.93,-17.89,5.58,-45.24,-0.03,-0.45,-0.83
0.46,-0.01,10.14,-17.44,4.91,-44.52,-0.08,-0.47,-0.60
0.24,0.51,9.85,-17.01,4.55,-44.87,-0.05,-0.46,-0.42
0.60,0.42,10.24,-17.25,4.82,-44.90,-0.04,-0.44,-0.32
0.57,0.42,10.19,-16.92,4.11,-44.49,-0.07,-0.49,-0.83
0.79,0.36,10.18,-17.30,3.32,-45.53,-0.15,-0.73,-1.42
0.20,-0.01,9.86,-17.47,3.23,-44.50,-0.15,-0.75,-1.54
0.01,-0.12,9.99,-17.39,1.23,-44.01,-0.09,-0.59,-1.04
0.53,0.40,10.24,-17.04,0.98,-45.09,-0.05,-0.41,-1.04
0.12,0.02,10.01,-17.11,-0.04,-44.96,-0.06,-0.53,-1.28
-0.22,-0.61,10.42,-16.71,-1.37,-44.04,-0.09,-0.63,-1.18
0.04,0.09,10.02,-16.19,-1.65,-44.10,-0.05,-0.38,-0.71
0.22,0.02,10.37,-15.61,-1.90,-43.93,-0.05,-0.47,-0.68
0.32,0.11,9.61,-15.59,-2.56,-44.12,-0.08,-0.46,-0.77
0.23,0.33,9.78,-14.69,-3.24,-44.77,-0.06,-0.38,-0.69
0.24,0.21,9.86,-14.81,-3.43,-44.99,-0.05,-0.40,-0.61
-0.14,-0.07,10.19,-14.15,-3.64,-44.81,-0.01,-0.39,-0.50
0.04,0.25,10.16,-14.18,-4.37,-44.30,-0.05,-0.41,-0.60
0.04,-0.08,10.01,-13.93,-4.90,-44.58,-0.06,-0.38,-0.89
-0.11,0.14,9.88,-12.99,-4.82,-44.43,-0.11,-0.40,-1.00
-0.09,-0.02,10.01,-12.51,-5.50,-43.93,-0.06,-0.37,-0.70
0.39,-0.04,10.51,-12.07,-5.83,-44.04,-0.01,-0.43,-0.83
-0.67,0.31,9.73,-11.97,-6.40,-44.31,-0.04,-0.46,-0.97
0.02,-0.05,10.11,-11.02,-6.91,-44.67,-0.06,-0.40,-0.73
0.11,0.02,10.52,-10.32,-7.22,-44.64,-0.05,-0.48,-0.92
-0.06,0.17,10.05,-9.85,-8.13,-43.99,-0.04,-0.40,-0.86
-0.39,0.18,9.82,-9.75,-7.61,-44.55,-0.05,-0.36,-0.77
0.01,0.17,9.90,-8.80,-7.80,-45.13,-0.02,-0.36,-0.99
0.36,-0.12,10.14,-8.67,-8.54,-44.86,-0.08,-0.39,-1.05
0.33,0.29,10.33,-7.89,-9.11,-44.23,-0.04,-0.41,-0.94
-0.37,0.01,12.38,-7.51,-9.15,-44.83,-0.00,-0.29,-0.75
0.15,0.58,9.99,-7.38,-9.02,-44.27,-0.01,-0.34,-0.79
-0.20,-0.05,10.24,-6.09,-9.43,-44.65,-0.04,-0.41,-0.93
-0.13,0.13,9.93,-4.69,-9.56,-44.80,-0.07,-0.42,-1.32
-0.24,0.39,9.67,-4.62,-10.19,-44.96,-0.06,-0.22,-0.88
0.45,0.22,10.11,-3.57,-10.08,-45.06,-0.09,-0.38,-0.68
0.27,1.72,10.23,-3.55,-10.25,-45.37,-0.09,-0.42,-0.69
-0.12,0.35,10.26,-2.65,-10.19,-44.61,-0.09,-0.35,-0.67
-0.03,0.21,10.13,-2.37,-10.79,-44.30,-0.05,-0.10,-0.58
0.54,0.13,10.39,-1.30,-11.21,-44.86,-0.04,-0.10,-0.56
0.32,0.12,10.17,-0.70,-10.87,-44.56,-0.03,-0.43,-0.58
0.14,0.10,10.21,-0.53,-11.14,-44.68,-0.02,-0.79,-0.69
0.12,0.41,9.88,-0.56,-11.17,-44.05,-0.04,-0.73,-0.69
0.30,-0.05,9.63,-0.42,-10.65,-44.10,0.03,-0.24,-0.26
0.34,-0.14,10.20,0.54,-10.80,-43.89,-0.01,-0.01,0.01
0.15,-0.18,10.22,1.08,-11.47,-44.24,-0.01,-0.22,0.06
-1.26,1.94,11.39,3.23,-11.03,-44.69,-0.13,-0.47,0.10
1.08,0.88,8.84,3.36,-11.06,-44.15,-0.05,-0.38,0.05
0.45,0.15,10.57,2.98,-11.40,-44.91,-0.02,-0.33,0.06
0.43,-0.07,10.04,2.67,-11.47,-44.05,-0.31,-0.43,0.06
0.95,-0.12,9.66,2.81,-11.62,-45.12,-0.01,-0.38,0.06
0.55,-0.03,10.09,3.30,-11.68,-44.20,-0.02,-0.39,0.06
0.68,0.10,10.01,2.82,-11.20,-43.93,-0.03,-0.40,0.06
0.73,0.24,9.88,3.13,-11.72,-44.15,-0.02,-0.39,0.05
0.73,0.15,9.94,3.20,-11.43,-43.88,-0.02,-0.39,0.06
0.73,0.23,10.02,3.14,-14.81,-44.43,-0.01,-0.40,0.06
0.72,0.16,9.95,2.67,-11.53,-44.14,-0.01,-0.40,0.06
1.64,-0.19,8.07,3.36,-11.20,-44.29,-0.07,-0.46,0.05
1.00,-0.04,9.46,2.92,-10.93,-44.01,-0.07,-0.36,0.05
0.53,1.82,9.95,2.72,-10.99,-43.89,-0.05,-0.63,-0.18
-0.08,0.41,10.33,3.01,-11.58,-43.16,-0.18,-0.50,-0.42
2.73,0.52,8.76,3.17,-11.74,-43.45,-0.10,-0.05,-0.51
0.34,-0.06,10.26,3.84,-11.43,-43.55,0.02,-0.40,-0.39
0.52,0.45,9.62,4.37,-11.36,-43.60,-0.02,-0.32,-0.08
0.80,-0.45,8.91,3.80,-11.43,-43.96,-0.02,-0.43,-0.03
0.67,-0.66,9.69,4.18,-11.59,-43.55,-0.01,-0.45,-0.46
0.80,-0.17,10.01,4.75,-11.56,-44.45,-0.01,-0.53,-0.48
0.14,-0.06,9.56,5.06,-11.78,-43.98,-0.18,-0.19,-0.51
0.59,-0.25,9.10,5.85,-11.49,-43.93,-0.04,-0.64,-1.04
0.40,0.33,9.37,5.83,-11.79,-43.57,-0.20,-0.63,-1.24
0.31,0.32,10.21,6.49,-11.33,-42.60,-0.18,-0.75,-1.54
0.72,0.06,10.37,6.83,-11.63,-43.31,-0.34,-0.73,-1.43
0.42,0.37,9.78,7.47,-12.04,-43.58,-0.30,-0.52,-1.44
0.35,0.17,9.92,8.59,-12.25,-42.97,-0.02,-0.32,-1.41
0.89,0.31,9.92,9.92,-11.44,-43.12,0.18,0.09,-1.24
1.85,-1.50,11.91,11.22,-10.83,-43.38,-0.22,-0.05,-1.12
0.59,-0.80,9.68,12.57,-10.54,-43.07,-0.14,-0.51,-1.41
0.30,0.22,10.11,13.37,-10.20,-43.25,-0.14,-0.30,-1.43
0.43,0.07,11.85,14.13,-10.08,-42.96,-0.08,-0.49,-0.43
1.13,0.25,9.89,13.75,-9.66,-42.46,-0.02,-0.35,0.01
0.92,0.06,9.92,13.75,-9.35,-43.70,-0.03,-0.43,-0.12
0.75,0.27,10.23,13.87,-9.78,-43.25,-0.07,-0.41,-0.20
0.75,-0.11,9.98,14.63,-10.08,-42.81,-0.03,-0.43,-0.27
0.93,0.80,10.24,15.21,-9.59,-42.84,-0.09,-0.49,-0.54
0.63,0.15,9.81,15.49,-9.98,-43.22,-0.03,-0.67,-1.03
0.11,0.28,10.38,15.61,-9.05,-43.41,-0.12,-0.63,-1.37
0.27,-0.08,9.71,15.95,-8.29,-42.59,-0.11,-0.67,-1.53
-0.80,0.24,10.73,15.62,-7.53,-44.26,-0.05,-1.20,-1.56
-0.34,-0.62,9.74,16.18,-7.98,-44.17,-0.08,-0.49,-1.12
0.29,0.48,9.86,17.10,-6.99,-42.98,-0.04,-0.36,-0.82
0.48,0.05,9.96,17.26,-6.62,-44.05,-0.07,-0.19,-0.78
-0.09,0.70,9.89,17.48,-6.02,-43.72,-0.05,-0.39,-0.59
0.61,0.45,10.09,18.40,-5.95,-44.01,0.01,-0.67,-1.15
-0.06,0.23,10.06,19.35,-5.89,-44.29,-0.06,-0.54,-1.38
-1.84,-0.42,11.30,19.95,-4.88,-44.26,-0.06,-0.60,-0.99
-0.09,-0.02,10.09,19.98,-4.14,-43.45,-0.02,-0.42,-0.45
0.92,3.59,13.25,21.35,-4.37,-42.46,-0.15,0.72,-0.23
0.95,-0.45,9.13,21.85,-4.68,-42.82,-0.17,-0.24,0.07
-0.16,0.07,10.42,22.00,-5.03,-42.21,-0.02,-0.35,0.06
0.39,0.19,10.85,22.01,-4.74,-42.40,-0.03,-0.30,0.06
0.66,0.06,9.84,22.11,-4.63,-42.46,-0.00,-0.35,0.06
0.48,-0.02,9.82,22.23,-4.94,-42.49,-0.01,-0.41,0.06
0.27,0.24,10.34,21.62,-4.37,-42.47,-0.02,-0.40,0.06
0.45,0.22,10.09,22.17,-4.81,-42.43,-0.02,-0.37,0.06
0.63,0.22,9.94,21.54,-4.81,-42.28,-0.02,-0.39,0.06
0.58,0.22,9.87,22.00,-4.65,-42.66,-0.01,-0.41,0.06
0.60,0.11,10.25,21.57,-4.47,-42.90,-0.02,-0.41,0.06
0.47,0.17,9.86,22.45,-4.68,-42.72,-0.02,-0.39,0.06
0.50,0.05,10.15,21.78,-4.44,-41.42,-0.02,-0.39,0.06
0.43,0.12,9.99,22.01,-4.59,-41.89,-0.03,-0.40,0.06
0.51,0.06,10.16,22.13,-4.55,-41.17,-0.02,-0.40,0.06
0.77,0.12,9.40,22.36,-4.91,-42.41,0.03,-0.22,0.06
1.20,-0.12,9.59,22.10,-4.81,-42.40,-0.01,-0.41,0.06
0.62,0.11,7.91,22.19,-4.30,-42.52,-0.07,-0.92,-0.05
-0.11,0.46,10.64,22.62,-4.31,-42.98,-0.07,-0.42,-0.37
0.80,-0.24,9.66,23.06,-5.03,-43.32,-0.12,-0.83,-1.24
-0.62,1.87,10.95,23.08,-3.64,-43.31,-0.56,-0.28,-2.02
4.16,0.22,8.62,23.55,-2.66,-42.27,-0.07,-0.46,-1.79
0.83,-0.63,11.11,24.31,-1.52,-43.28,-0.09,-0.61,-0.49
-0.34,1.32,10.13,24.29,-1.65,-42.14,0.05,-0.31,-1.14
0.28,0.24,10.32,25.01,0.00,-42.52,-0.14,-0.40,-1.07
0.54,0.14,9.76,24.98,0.73,-43.48,-0.03,-0.40,-0.29
0.37,-0.12,9.56,25.45,0.50,-43.51,-0.00,-0.38,-0.66
0.31,0.17,9.47,25.78,1.29,-43.12,-0.15,-0.34,-1.14
1.24,0.83,9.21,26.00,2.16,-43.15,-0.07,-0.32,-0.78
0.93,0.09,9.79,26.24,2.62,-43.23,-0.05,-0.45,-0.38
-0.29,0.43,9.85,25.93,2.48,-43.53,-0.06,-0.43,-0.57
0.52,0.21,10.62,26.94,3.19,-42.46,-0.11,-0.39,-0.99
1.11,0.10,11.28,26.22,3.83,-42.27,-0.12,-0.37,-1.21
0.45,0.59,10.03,26.79,5.09,-42.87,-0.07,-0.37,-0.90
0.97,-0.64,10.63,26.29,5.29,-42.53,-0.04,-0.43,-0.56
0.09,-0.04,10.14,27.33,5.99,-42.01,-0.10,-0.38,-0.76
1.18,0.77,9.92,27.16,6.21,-42.22,-0.12,-0.43,-0.97
0.70,0.07,10.53,26.76,7.23,-42.39,-0.12,-0.58,-0.88
0.43,0.43,10.01,26.97,7.88,-42.52,-0.14,-0.52,-0.90
-1.03,-0.47,10.31,26.92,8.58,-43.09,-0.11,-0.52,-1.12
0.76,0.42,9.18,27.00,9.27,-43.04,-0.13,-0.43,-1.06
0.49,0.59,10.52,26.82,9.68,-42.46,-0.08,-0.52,-0.78
0.39,0.07,10.01,26.43,10.83,-42.69,-0.06,-0.36,-1.05
0.66,0.11,10.11,26.75,11.31,-42.68,-0.13,-0.40,-0.93
0.01,0.50,9.93,26.78,12.63,-42.56,-0.10,-0.36,-1.13
0.96,0.22,9.33,26.32,13.27,-42.33,-0.10,-0.36,-1.14
0.65,0.92,10.06,26.31,14.73,-42.18,-0.10,-0.32,-0.93
0.51,-0.29,9.82,26.10,14.91,-42.47,-0.06,-0.42,-0.62
0.27,-0.13,10.09,26.02,15.45,-42.66,-0.09,-0.40,-0.92
0.37,0.12,9.40,25.94,16.15,-42.66,-0.10,-0.27,-1.64
-0.67,-0.43,10.20,25.42,18.21,-42.72,-0.08,-0.38,-0.70
0.54,-0.02,9.91,25.26,18.77,-42.60,-0.14,-0.37,-1.33
0.19,0.34,9.21,25.21,19.80,-42.11,-0.11,-0.24,-1.26
-0.65,-0.43,10.03,24.73,20.61,-41.95,-0.06,-0.49,-0.70
0.27,1.00,9.59,24.35,21.84,-41.76,-0.14,-0.38,-0.91
0.55,0.83,10.19,24.03,21.72,-42.27,-0.05,-0.47,-0.45
0.88,0.20,9.96,24.10,22.58,-42.69,-0.04,-0.49,-0.34
0.37,0.55,9.89,23.85,22.22,-42.56,-0.08,-0.40,-0.35
0.27,0.21,10.24,23.65,22.26,-42.98,-0.06,-0.47,-0.27
0.30,-0.04,10.38,22.96,22.54,-43.19,-0.04,-0.37,-0.54
0.56,-0.74,9.96,23.18,23.40,-42.77,-0.02,-0.40,-0.42
0.43,0.73,9.91,22.99,23.33,-42.68,-0.03,-0.40,-0.53
0.93,-0.62,10.59,22.64,24.13,-42.68,-0.04,-0.28,-0.69
0.21,-0.13,10.32,22.68,24.74,-42.52,-0.07,-0.45,-0.37
0.28,0.04,10.04,22.96,24.36,-42.88,-0.08,-0.40,-0.44
-0.93,-0.37,10.26,22.65,24.35,-42.66,-0.11,-0.42,-0.86
0.79,-1.01,10.29,21.97,25.72,-42.87,-0.08,-0.34,-1.17
-0.07,0.12,9.73,21.35,26.34,-42.30,-0.03,-0.42,-0.53
-0.09,0.88,10.41,21.56,26.72,-42.25,-0.06,-0.45,-0.32
0.13,0.22,9.85,20.77,27.23,-42.50,-0.08,-0.43,-0.61
0.90,-1.77,10.11,20.43,27.48,-42.46,-0.03,-0.36,-0.61
0.71,0.37,10.21,20.39,27.58,-42.85,-0.03,-0.43,-0.24
0.42,0.14,10.02,19.98,27.58,-42.44,-0.04,-0.26,-0.54
0.42,-0.62,10.11,19.73,28.05,-42.81,-0.06,-0.35,-0.55
0.45,-0.22,10.26,19.80,28.24,-42.60,-0.08,-0.38,-0.58
0.58,-0.07,10.03,19.96,28.66,-42.37,-0.05,-0.33,-0.50
1.07,0.30,10.28,19.92,29.38,-42.78,-0.06,-0.38,-0.63
1.83,-0.09,10.12,19.32,29.07,-42.56,-0.06,-0.32,-0.64
0.15,0.73,10.34,18.88,29.41,-42.11,-0.12,-0.35,-0.70
-0.24,0.65,9.75,18.09,29.93,-42.58,-0.06,-0.44,-0.42
0.56,-0.19,10.27,17.93,29.74,-42.59,0.00,-0.41,-0.16
0.71,0.27,10.19,17.49,29.83,-42.33,-0.06,-0.38,-0.27
0.31,-1.17,10.13,17.92,30.40,-42.52,-0.02,-0.30,-0.04
0.80,-0.21,10.18,17.38,30.47,-42.59,-0.08,-0.49,0.06
1.31,1.27,8.81,17.79,30.43,-43.69,-0.05,-0.46,0.32
0.73,0.30,10.44,18.21,29.51,-42.63,0.07,-0.41,0.77
1.41,-0.67,9.14,18.50,29.28,-42.34,0.02,-0.34,0.01
0.87,-0.01,9.78,18.36,29.76,-42.90,-0.02,-0.41,0.06
0.33,0.06,10.24,18.46,29.33,-41.89,-0.05,-0.44,0.06
0.41,0.28,10.11,18.50,29.67,-42.78,-0.02,-0.40,0.06
0.45,0.17,10.10,18.63,29.44,-42.74,-0.01,-0.38,0.06
0.60,0.19,9.88,18.44,33.10,-42.74,-0.02,-0.41,0.06
0.33,0.04,10.13,18.02,29.70,-42.28,0.00,-0.38,0.06
0.69,-0.07,9.81,17.87,29.66,-42.50,-0.02,-0.39,0.06
0.56,0.00,10.09,18.15,29.61,-43.45,-0.02,-0.41,0.06
0.61,0.01,10.01,18.09,29.19,-43.03,-0.02,-0.39,0.06
0.46,0.10,10.08,18.30,29.35,-42.68,-0.02,-0.40,0.06
0.51,0.14,10.01,18.43,29.70,-42.56,-0.02,-0.40,0.06
0.51,0.17,10.11,17.92,30.05,-42.06,-0.01,-0.40,0.06
0.17,-0.07,9.68,18.71,29.82,-42.74,-0.02,-0.38,0.06
0.54,0.04,10.01,18.65,30.42,-42.46,-0.02,-0.40,0.06
0.52,0.08,10.21,18.94,29.76,-42.33,-0.02,-0.40,0.06
0.51,0.09,9.96,18.96,30.30,-43.19,-0.02,-0.40,0.06
0.52,0.17,10.10,18.68,29.98,-42.46,-0.01,-0.40,0.05
0.50,0.09,10.09,18.68,29.96,-42.56,-0.02,-0.39,0.06
0.57,0.02,10.05,18.55,30.21,-42.56,-0.01,-0.40,0.06
0.52,0.01,9.93,18.33,30.25,-42.68,-0.02,-0.40,0.06
0.46,-0.03,10.03,19.04,30.04,-41.89,-0.02,-0.40,0.06
0.57,-0.02,10.10,18.74,30.14,-43.51,-0.02,-0.40,0.06
0.49,0.05,10.11,19.07,30.72,-43.12,-0.02,-0.40,0.06
0.45,0.03,10.06,18.49,30.39,-43.03,-0.02,-0.39,0.06
0.50,0.07,9.93,18.81,30.17,-42.93,-0.02,-0.40,0.06
0.47,0.01,10.04,18.61,30.30,-42.53,-0.02,-0.39,0.06
0.53,-0.01,10.08,18.30,30.34,-42.49,-0.02,-0.39,0.06
0.86,0.09,9.73,18.69,30.08,-42.49,-0.02,-0.39,0.06
0.57,0.03,9.99,18.74,30.50,-42.46,-0.01,-0.40,0.06
0.39,0.04,10.20,18.55,30.20,-42.37,-0.02,-0.38,0.06
0.55,0.14,9.90,18.05,30.28,-42.33,-0.02,-0.40,0.06
0.50,0.04,10.25,18.52,29.89,-42.78,-0.02,-0.39,0.06
0.54,0.15,9.93,18.25,30.37,-42.37,-0.01,-0.39,0.05
0.27,-0.04,10.23,18.62,30.75,-42.58,-0.01,-0.39,0.06
0.57,0.00,9.94,18.39,30.47,-42.31,-0.02,-0.40,0.06
0.56,0.00,10.01,18.71,30.75,-42.77,-0.01,-0.40,0.06
0.55,0.00,9.94,18.62,30.47,-42.55,-0.02,-0.40,0.06
0.34,0.02,10.24,19.00,30.17,-43.22,-0.01,-0.40,0.06
0.60,0.17,10.06,18.69,30.69,-42.79,-0.03,-0.39,0.06
0.47,0.01,10.04,18.43,30.61,-42.74,-0.01,-0.40,0.06
0.45,0.03,10.22,18.93,30.78,-42.65,-0.01,-0.38,0.06
0.59,0.07,9.93,18.99,30.12,-43.03,-0.01,-0.40,0.06
0.45,-0.04,10.15,19.37,30.53,-42.24,-0.01,-0.40,0.06
0.55,0.01,9.89,19.12,30.17,-42.69,-0.02,-0.40,0.06
0.48,-0.02,10.24,18.78,30.11,-42.36,-0.02,-0.40,0.06
0.49,0.19,10.02,18.59,29.80,-43.04,-0.02,-0.40,0.06
0.46,-0.01,10.01,18.77,29.79,-43.04,-0.02,-0.39,0.06
0.53,0.13,9.99,18.97,29.79,-42.69,-0.02,-0.39,0.06
0.55,0.03,10.09,19.04,29.85,-42.55,-0.02,-0.40,0.06
0.42,-0.05,10.15,18.61,29.45,-41.95,-0.02,-0.39,0.06
0.47,-0.01,10.17,18.39,29.89,-42.82,-0.02,-0.40,0.06
0.55,0.09,10.00,18.58,30.02,-42.78,-0.02,-0.40,0.06
0.62,0.11,10.08,18.58,29.79,-42.97,-0.02,-0.39,0.06
0.37,0.06,9.84,18.93,30.09,-42.30,-0.02,-0.40,0.06
0.51,0.09,9.93,18.80,30.14,-43.07,-0.01,-0.39,0.06
0.56,-0.01,9.96,18.58,30.34,-43.51,-0.01,-0.40,0.06
0.62,0.11,10.06,18.31,29.85,-43.01,-0.02,-0.38,0.06
0.49,0.05,10.01,17.95,30.09,-42.69,-0.01,-0.40,0.06
0.56,0.01,10.06,18.18,29.96,-42.63,-0.02,-0.40,0.06
0.43,-0.01,9.96,18.66,29.45,-42.60,-0.02,-0.40,0.07
0.47,0.04,10.14,18.52,30.06,-43.17,-0.02,-0.39,0.06
0.50,0.14,9.98,18.40,29.82,-43.29,-0.01,-0.39,0.05
0.60,0.05,9.99,19.13,29.85,-43.35,-0.02,-0.40,0.05
0.50,0.01,10.04,18.74,29.68,-43.28,-0.01,-0.39,0.06
0.46,0.03,10.11,18.59,29.87,-43.23,-0.01,-0.40,0.06
0.49,0.00,10.05,18.02,29.92,-42.69,-0.02,-0.39,0.06
0.52,0.05,9.96,18.52,30.36,-43.93,-0.02,-0.40,0.05
0.46,0.14,10.12,18.04,30.37,-43.50,-0.02,-0.40,0.06
0.55,0.01,9.95,18.56,30.04,-42.77,-0.01,-0.38,0.06
0.52,0.16,9.90,18.87,30.05,-42.72,-0.02,-0.41,0.06
0.46,0.09,10.15,18.18,29.74,-42.81,-0.01,-0.40,0.06
0.52,0.13,9.99,18.58,29.73,-42.97,-0.01,-0.38,0.06
0.52,0.14,10.02,18.85,30.23,-43.28,-0.01,-0.40,0.06
0.52,0.04,10.09,18.69,29.92,-42.84,-0.01,-0.40,0.06
0.49,0.01,10.09,18.53,29.99,-42.25,-0.02,-0.39,0.06
0.48,0.08,10.04,18.24,30.05,-42.55,-0.02,-0.41,0.06
0.45,0.06,10.05,18.61,29.98,-42.93,-0.01,-0.40,0.06
0.58,0.04,10.16,18.49,30.08,-42.41,-0.02,-0.39,0.06
0.45,0.09,9.89,18.27,29.89,-42.55,-0.02,-0.40,0.06
0.61,0.12,10.05,18.56,29.51,-42.98,-0.02,-0.40,0.05
0.54,-0.04,9.80,18.78,29.51,-43.61,-0.02,-0.40,0.06
0.73,0.00,10.01,18.08,29.85,-43.22,-0.02,-0.39,0.06
0.48,0.09,10.10,18.23,29.82,-42.62,-0.02,-0.40,0.06
0.62,0.03,10.00,18.36,29.95,-43.51,-0.02,-0.40,0.06
0.47,0.04,9.98,18.50,29.79,-42.01,-0.02,-0.40,0.06
0.43,0.12,9.97,18.25,30.42,-42.39,-0.01,-0.40,0.06
0.45,0.05,10.14,18.34,29.99,-42.06,-0.01,-0.39,0.07
0.55,-0.01,10.12,18.84,29.98,-42.44,-0.02,-0.40,0.06
0.54,0.02,9.93,18.65,30.28,-42.62,-0.02,-0.39,0.06
0.57,0.04,10.07,18.53,29.42,-42.53,-0.02,-0.40,0.06
-0.27,-0.16,11.47,18.82,29.99,-42.52,0.10,-0.40,0.05
0.24,-0.04,11.64,18.59,29.60,-42.53,0.00,-0.31,0.05
0.72,-0.01,9.39,18.66,29.19,-42.77,-0.11,-0.32,0.06
0.32,-0.43,10.53,18.39,30.23,-42.03,-0.01,-0.21,-1.07
0.48,-0.46,10.69,17.76,30.75,-42.43,-0.07,-1.15,-1.57
-0.25,-0.04,10.98,15.05,30.84,-43.04,-0.16,-0.88,-1.38
-0.24,0.45,9.91,15.14,32.40,-42.06,-0.08,0.45,-0.46
0.75,0.19,10.16,15.74,31.47,-42.68,0.01,-0.67,-0.09
-0.58,0.39,10.06,14.37,32.15,-42.12,-0.06,-0.29,-0.52
0.14,-0.28,9.32,14.64,32.13,-42.17,-0.11,0.22,-1.10
1.32,-0.34,9.87,14.40,32.74,-42.15,-0.12,-0.81,-0.91
-0.39,0.22,10.01,12.63,33.59,-43.20,-0.06,-0.67,-0.54
0.78,0.26,10.11,12.44,33.69,-43.47,-0.01,-0.32,-0.20
-0.34,1.11,10.11,12.00,33.88,-43.51,-0.03,-0.68,-0.64
0.03,-0.04,10.43,11.63,34.01,-43.57,-0.10,0.15,-0.89
0.82,-0.29,9.96,12.06,33.81,-43.47,-0.08,-0.51,-0.67
0.24,-0.16,10.34,11.30,34.14,-43.44,-0.04,-0.64,-0.33
0.01,0.00,10.35,11.44,34.22,-42.43,-0.02,-0.58,-0.24
0.12,0.15,9.96,10.58,34.51,-43.19,-0.05,-0.34,-0.33
0.29,-0.24,9.77,10.82,33.88,-42.94,-0.06,0.25,-0.25
2.00,-1.13,8.00,11.84,33.69,-42.20,-0.05,-0.32,-0.21
0.09,0.76,10.27,11.37,34.01,-42.41,-0.05,-0.46,-0.13
0.73,-0.09,10.16,11.60,34.17,-43.35,-0.09,-0.36,-0.51
0.68,-0.18,10.03,10.41,34.27,-43.42,-0.04,-0.43,-0.45
0.52,-0.20,10.24,9.46,34.46,-42.87,-0.04,-0.37,-0.46
0.29,-0.11,10.07,9.19,34.49,-43.10,-0.07,-0.35,-0.51
0.95,0.08,9.44,9.21,34.81,-43.41,-0.04,-0.33,-0.40
1.41,-0.03,9.05,8.51,34.76,-42.37,-0.04,-0.36,-0.30
0.16,0.23,10.00,8.32,35.22,-43.60,-0.08,-0.35,-0.67
0.32,0.82,10.34,7.53,35.06,-43.42,-0.06,-0.37,-0.66
-0.03,0.14,10.83,7.19,35.05,-43.03,-0.08,-0.29,-0.84
0.83,0.38,10.01,6.75,35.38,-43.89,-0.10,-0.45,-0.81
-0.26,-0.73,10.02,6.42,35.31,-44.71,-0.15,-0.23,-1.12
1.10,-0.10,10.12,5.86,35.03,-44.01,-0.11,-0.44,-1.00
0.93,0.07,10.10,5.25,35.17,-44.14,-0.13,-0.38,-0.80
0.44,0.52,9.32,4.31,35.57,-43.96,-0.11,-0.63,-0.90
1.14,0.52,10.09,3.41,35.30,-43.54,-0.14,-0.65,-0.84
0.01,-0.06,9.04,2.66,35.65,-44.58,-0.17,-0.45,-0.82
0.27,0.95,10.02,1.81,36.07,-44.39,0.02,-0.22,-0.68
0.95,0.55,9.57,1.18,35.47,-44.40,-0.00,-0.17,-0.69
2.19,0.48,9.66,0.70,35.75,-43.85,0.00,-0.25,-0.73
1.94,0.22,9.53,0.28,35.94,-43.20,0.01,0.07,-0.86
-0.06,-1.67,9.53,-0.23,35.38,-44.02,-0.13,-0.52,-0.93
0.17,0.80,9.28,-0.63,35.11,-43.93,-0.08,-0.56,-0.65
-0.34,0.03,10.47,-1.32,35.44,-44.40,-0.05,-0.46,-0.46
-0.77,0.29,10.37,-1.93,35.81,-44.01,-0.09,-0.40,-0.98
0.86,-0.22,10.06,-2.85,35.03,-44.30,-0.09,-0.55,-0.74
1.81,0.22,9.45,-3.52,35.03,-44.26,-0.07,-0.29,-0.88
-0.15,-0.08,9.31,-3.48,34.79,-44.27,-0.05,-0.45,-0.64
0.77,0.78,9.50,-4.76,34.83,-44.15,-0.09,-0.32,-0.95
-0.04,-0.40,10.57,-5.06,34.84,-43.96,-0.11,-0.31,-1.12
-0.14,0.00,10.06,-5.42,34.00,-44.68,-0.11,-0.46,-1.03
2.67,0.61,9.83,-6.58,33.56,-44.62,-0.10,-0.39,-1.48
0.88,-0.42,9.44,-7.13,33.48,-44.74,-0.12,-0.41,-1.25
0.19,0.02,11.60,-7.64,33.22,-44.59,-0.12,-0.36,-1.05
0.22,0.55,10.65,-8.37,32.61,-45.00,-0.12,-0.32,-1.25
0.91,0.09,10.29,-9.31,31.75,-45.10,-0.14,-0.49,-1.14
0.90,-0.81,10.50,-9.13,31.64,-44.01,-0.08,-0.50,-0.81
-0.18,0.57,10.07,-10.30,31.60,-44.65,-0.11,-0.46,-1.03
0.41,0.36,10.56,-10.98,31.18,-44.12,-0.09,-0.53,-1.14
0.78,-0.21,10.62,-11.44,30.56,-44.34,-0.13,-0.44,-0.90
0.49,0.38,10.18,-12.06,30.14,-44.88,-0.11,-0.37,-1.12
0.74,-0.10,9.68,-12.89,29.48,-45.26,-0.09,-0.36,-1.07
0.47,-0.19,10.04,-13.27,29.06,-44.52,-0.07,-0.41,-0.55
0.57,-1.54,10.17,-12.88,28.88,-43.96,-0.06,-0.42,-0.50
0.13,0.16,10.04,-13.58,28.14,-44.36,-0.07,-0.42,-0.68
-0.04,0.26,9.91,-13.83,28.50,-43.95,-0.07,-0.46,-0.48
0.47,0.90,10.16,-14.29,28.49,-45.05,-0.06,-0.37,-0.91
0.10,0.32,9.58,-14.98,27.67,-44.84,-0.12,-0.36,-1.07
0.37,-0.19,9.35,-15.54,27.36,-45.64,-0.10,-0.48,-0.77
-0.01,0.39,10.26,-15.54,26.91,-44.96,-0.08,-0.40,-0.97
0.42,0.25,10.64,-15.92,26.37,-44.78,-0.09,-0.36,-1.07
0.22,0.89,10.10,-16.49,25.84,-45.21,-0.12,-0.37,-1.03
1.13,-0.79,10.49,-16.97,23.37,-44.55,-0.15,-0.54,-0.96
0.88,0.57,9.85,-17.67,22.76,-45.82,-0.10,-0.38,-0.83
0.48,0.51,10.05,-18.62,22.33,-44.53,-0.17,-0.57,-0.82
0.05,-1.03,10.86,-18.68,21.46,-45.51,-0.15,-0.43,-1.19
-1.11,0.18,10.44,-19.57,20.61,-45.18,-0.11,-0.43,-1.15
-0.14,0.19,10.10,-19.26,19.41,-45.41,-0.05,-0.26,-1.10
1.06,0.19,9.76,-19.20,18.52,-44.80,-0.07,-0.27,-0.95
-0.14,-0.52,10.33,-18.78,17.83,-45.02,-0.07,-0.43,-0.92
0.22,-0.29,10.36,-19.00,17.16,-45.56,-0.09,-0.41,-0.95
-0.01,-0.65,10.01,-19.10,16.53,-44.40,-0.04,-0.37,-0.45
0.62,-0.05,10.07,-19.20,16.47,-44.84,-0.01,-0.62,-0.22
-0.16,0.10,9.86,-19.25,16.85,-44.36,-0.02,-0.40,0.13
0.61,0.14,10.14,-18.99,16.50,-45.22,-0.02,-0.38,0.05
0.52,0.14,9.97,-19.82,16.57,-44.39,-0.01,-0.41,0.06
0.53,0.08,10.01,-19.63,16.59,-45.41,-0.02,-0.38,0.06
0.42,0.16,10.14,-19.80,16.88,-45.12,-0.02,-0.41,0.06
0.61,0.04,9.88,-19.13,17.07,-44.65,-0.01,-0.39,0.06
0.40,0.29,10.05,-19.38,16.56,-44.75,-0.02,-0.40,0.06
0.53,0.06,9.90,-19.29,16.73,-44.99,-0.01,-0.39,0.05
0.42,0.14,10.11,-19.92,16.79,-44.90,-0.02,-0.40,0.06
0.44,0.04,9.92,-19.57,16.81,-45.00,-0.02,-0.39,0.06
0.47,0.19,10.04,-19.28,16.68,-44.93,-0.02,-0.40,0.06
0.49,0.14,10.04,-19.06,17.13,-44.71,-0.01,-0.39,0.06
0.36,0.22,10.07,-19.47,16.98,-44.50,-0.02,-0.40,0.06
0.41,0.10,10.09,-18.87,16.81,-44.55,-0.01,-0.39,0.06
0.45,0.06,10.08,-18.66,16.69,-45.09,-0.02,-0.39,0.06
0.61,0.21,10.07,-19.07,16.91,-45.09,-0.02,-0.40,0.06
0.35,0.13,10.02,-19.23,16.94,-43.92,-0.02,-0.41,0.06
0.48,0.10,10.14,-18.80,16.94,-44.01,-0.02,-0.39,0.06
0.47,0.13,9.99,-19.50,16.82,-44.31,-0.01,-0.40,0.06
0.39,0.09,9.99,-19.45,17.47,-44.46,-0.02,-0.40,0.05
0.37,0.14,9.97,-19.23,17.01,-45.06,-0.02,-0.40,0.06
0.46,0.09,9.91,-19.32,16.69,-45.16,-0.02,-0.39,0.06
0.44,0.06,10.09,-19.22,16.91,-44.52,-0.02,-0.40,0.06
0.44,0.17,10.07,-19.04,17.01,-45.56,-0.02,-0.39,0.06
0.45,0.09,10.04,-19.50,16.59,-45.67,-0.01,-0.39,0.06
0.44,0.12,10.09,-19.22,16.66,-45.12,-0.01,-0.40,0.06
0.48,0.11,9.96,-18.68,16.90,-45.09,-0.01,-0.40,0.06
0.51,0.09,10.03,-19.22,16.71,-45.06,-0.02,-0.40,0.06
0.42,0.02,10.05,-18.77,16.92,-45.60,-0.02,-0.40,0.06
0.42,0.15,10.10,-19.42,16.54,-45.91,-0.02,-0.39,0.06
0.40,0.04,10.00,-19.48,16.84,-45.28,-0.01,-0.39,0.06
0.45,0.13,9.96,-19.54,17.11,-45.15,-0.02,-0.40,0.06
0.41,0.10,9.99,-19.20,16.57,-45.05,-0.01,-0.40,0.06
0.44,0.11,10.12,-19.15,16.33,-45.60,-0.02,-0.40,0.06
0.38,0.15,9.99,-19.19,16.68,-45.24,-0.02,-0.39,0.06
0.34,0.11,10.02,-19.15,16.66,-44.84,-0.02,-0.40,0.06
0.45,0.16,9.99,-19.34,16.92,-45.72,-0.02,-0.39,0.06
0.42,0.11,10.08,-19.32,16.88,-45.72,-0.01,-0.39,0.06
0.39,0.18,10.08,-19.16,16.73,-45.09,-0.02,-0.40,0.06
0.50,0.14,9.96,-19.56,17.04,-46.13,-0.02,-0.40,0.06
0.42,0.16,10.10,-19.31,17.04,-45.53,-0.02,-0.39,0.06
0.45,1.82,10.11,-19.16,16.95,-45.31,-0.02,-0.39,0.06
0.50,0.16,10.05,-19.41,17.36,-45.05,-0.02,-0.40,0.06
0.42,0.11,10.10,-18.71,17.25,-44.84,-0.02,-0.40,0.06
0.43,0.09,9.96,-19.38,16.49,-44.65,-0.02,-0.40,0.06
0.45,0.09,10.05,-19.19,17.29,-45.26,-0.02,-0.40,0.06
0.45,0.11,10.00,-18.84,17.44,-41.58,-0.01,-0.40,0.06
0.31,0.33,10.42,-18.74,17.06,-44.83,-0.06,-0.60,0.05
-0.57,0.17,10.89,-19.56,16.65,-45.16,-0.02,-0.71,-0.03
0.62,0.22,9.99,-19.22,17.14,-45.21,-0.05,-0.29,-0.20
0.24,0.54,10.18,-19.23,16.41,-44.65,-0.06,-0.66,-0.86
0.19,-0.19,10.05,-19.95,16.11,-45.54,-0.11,-0.34,-1.05
-0.78,-0.22,10.60,-19.91,14.85,-45.15,-0.10,0.07,-1.04
-0.29,1.41,10.43,-19.47,14.03,-45.35,-0.11,-0.42,-0.61
0.42,0.11,10.38,-19.45,13.81,-45.24,-0.02,-0.35,-0.07
0.34,0.22,10.41,-19.09,14.26,-45.18,-0.01,-0.38,0.06
0.29,0.14,9.96,-19.35,14.32,-46.43,-0.01,-0.37,0.04
0.42,0.26,10.05,-19.10,14.47,-46.35,-0.03,-0.38,-0.07
0.48,0.30,9.99,-18.80,14.43,-45.86,-0.06,-0.42,-0.43
0.51,0.22,10.19,-18.93,13.93,-44.58,-0.08,-0.40,-0.46
0.57,0.44,10.29,-19.10,13.10,-45.24,-0.05,-0.43,-0.30
0.31,0.35,10.07,-19.09,13.23,-45.19,-0.04,-0.40,-0.24
0.01,0.42,9.99,-19.18,12.95,-45.41,-0.04,-0.38,-0.32
0.31,0.60,9.73,-19.07,12.82,-45.26,-0.06,-0.38,-0.55
0.17,0.19,10.32,-19.10,12.44,-45.00,-0.06,-0.41,-0.64
0.55,0.13,10.18,-18.94,11.40,-45.07,-0.06,-0.37,-0.55
0.29,0.34,10.19,-18.99,11.43,-45.88,-0.09,-0.41,-0.60
0.88,0.19,10.22,-18.91,10.65,-45.45,-0.08,-0.45,-1.00
0.04,-0.18,9.49,-19.06,10.00,-46.05,-0.12,-0.41,-1.23
1.05,1.36,10.44,-18.84,9.18,-45.97,-0.16,-0.29,-1.44
-0.02,-0.37,10.87,-18.30,7.53,-46.08,-0.20,-0.34,-1.70
0.37,-0.06,8.89,-18.20,6.61,-46.23,-0.09,-0.32,-0.38
1.15,0.54,10.13,-17.98,6.56,-45.29,-0.04,-0.36,-0.19
0.57,0.39,9.65,-17.60,6.49,-45.57,-0.06,-0.30,-0.56
1.18,-0.07,9.44,-17.44,5.82,-45.43,-0.10,-0.50,-1.31
1.22,-0.42,10.21,-17.29,4.53,-45.10,-0.07,-0.44,-0.90
1.29,0.32,9.86,-17.07,4.68,-44.80,-0.08,-0.49,-0.62
0.84,1.59,9.48,-16.90,3.48,-44.78,-0.11,-0.51,-1.16
0.57,0.02,10.24,-16.68,2.24,-44.52,-0.13,-0.56,-1.68
0.03,-0.21,10.13,-16.84,1.48,-44.97,-0.09,-0.39,-0.88
0.34,0.36,9.76,-16.38,0.95,-44.50,-0.07,-0.35,-0.69
0.00,-0.62,10.09,-15.73,0.04,-43.89,-0.11,-0.59,-1.02
0.25,0.22,10.51,-15.67,-0.48,-44.91,-0.11,-0.48,-1.20
1.69,0.71,9.75,-14.94,-1.53,-44.99,-0.06,-0.22,-1.46
0.32,0.85,9.83,-14.03,-2.38,-45.76,-0.08,-0.44,-1.82
-0.42,-0.44,9.76,-13.69,-3.26,-44.87,-0.12,-0.59,-1.38
0.70,0.14,10.25,-13.26,-3.98,-44.88,-0.13,-0.63,-1.27
0.29,0.15,9.87,-12.55,-4.28,-45.12,-0.06,-0.66,-1.32
0.34,0.15,10.10,-10.67,-5.92,-44.24,-0.05,-0.60,-0.76
0.09,0.32,10.14,-10.44,-6.02,-43.70,-0.02,-0.65,-0.79
0.13,0.26,9.99,-10.64,-6.30,-43.93,-0.06,-0.51,-0.59
0.14,0.04,10.09,-9.84,-6.33,-44.11,-0.04,-0.43,-0.53
0.07,0.19,10.22,-9.95,-6.69,-43.44,-0.04,-0.49,-0.62
0.02,0.57,10.09,-9.21,-7.19,-44.01,-0.02,-0.28,-0.67
0.67,-0.19,9.96,-8.89,-7.40,-43.96,0.01,-0.54,-1.07
1.48,-0.12,9.86,-8.35,-7.50,-45.10,-0.06,-0.52,-0.89
0.48,-0.62,10.58,-8.29,-7.72,-44.78,-0.06,-0.39,-0.54
0.14,-0.22,10.34,-7.57,-8.37,-44.86,-0.05,-0.37,-0.48
0.33,0.12,10.26,-7.28,-8.42,-44.65,-0.04,-0.34,-0.48
0.18,0.09,9.88,-6.69,-8.45,-45.37,-0.05,-0.45,-0.46
0.10,0.00,9.99,-6.81,-8.58,-44.91,-0.03,-0.50,-0.47
0.01,0.38,9.72,-6.90,-9.13,-43.96,-0.03,-0.43,-0.43
0.17,0.19,10.04,-6.65,-8.97,-43.54,-0.01,-0.39,-0.22
-0.77,0.38,10.07,-6.12,-8.94,-44.27,-0.04,-0.45,-0.43
0.33,0.19,9.97,-6.11,-8.70,-44.15,-0.01,-0.34,-0.54
0.27,-0.01,10.52,-5.58,-8.71,-43.50,-0.03,-0.37,-0.81
-0.04,-0.46,9.98,-5.12,-9.00,-43.57,-0.02,-0.44,-0.78
1.73,-0.19,10.60,-4.47,-9.50,-44.21,-0.02,-0.37,-0.47
-0.01,0.27,9.78,-3.95,-9.47,-44.39,-0.03,-0.33,-0.23
0.17,0.26,10.11,-3.67,-9.60,-44.18,-0.07,-0.34,-0.29
0.06,0.01,9.99,-3.05,-9.98,-44.53,-0.05,-0.41,-0.36
0.01,0.18,9.91,-3.39,-9.92,-44.49,-0.08,-0.47,-0.52
-0.12,0.17,9.93,-2.69,-9.97,-43.44,-0.03,-0.44,-0.58
0.32,0.29,9.93,-2.29,-10.06,-43.45,-0.03,-0.37,-0.47
0.37,0.08,10.18,-1.83,-10.63,-43.39,-0.02,-0.42,-0.50
-0.50,-0.16,10.76,-1.46,-10.64,-43.91,-0.03,-0.13,-0.34
-0.24,0.09,10.19,-0.03,-10.51,-43.00,0.08,1.39,0.02
0.21,0.20,13.55,1.30,-10.79,-43.25,0.14,-0.64,-0.09
1.54,-0.82,11.17,1.90,-10.99,-43.88,0.08,-0.56,0.05
0.06,0.85,9.77,1.32,-10.90,-43.38,-0.04,-0.38,0.06
0.19,0.51,9.95,1.71,-10.70,-43.76,-0.03,-0.38,0.06
0.62,0.01,9.85,1.42,-10.77,-43.28,-0.02,-0.38,0.05
0.91,-0.04,10.08,1.46,-10.77,-43.67,-0.00,-0.42,0.06
0.62,0.03,9.92,1.49,-10.60,-44.30,-0.01,-0.43,0.06
0.75,0.05,9.99,2.08,-11.03,-43.85,-0.02,-0.42,0.05
0.34,0.07,9.88,1.65,-10.74,-44.49,-0.00,-0.48,0.05
0.79,0.22,10.01,1.53,-10.68,-43.91,-0.01,-0.41,0.06
0.52,0.13,9.99,1.72,-10.79,-44.48,-0.01,-0.39,0.06
0.59,0.02,9.99,1.86,-10.61,-43.74,-0.00,-0.43,0.06
0.57,0.01,10.06,0.86,-10.52,-44.08,-0.01,-0.49,0.06
0.53,0.08,9.99,1.45,-10.76,-43.61,-0.00,-0.57,0.05
0.48,0.11,10.14,1.07,-10.73,-43.61,-0.01,-0.51,0.06
0.37,0.14,10.16,0.91,-10.22,-44.20,-0.02,-0.41,0.07
0.29,0.01,10.19,1.72,-10.73,-44.18,-0.04,-0.19,0.06
1.37,-0.12,9.80,1.37,-10.96,-44.04,-0.13,0.06,0.07
0.20,0.10,10.23,1.51,-10.77,-43.93,0.05,-0.61,0.05
0.04,2.64,10.93,1.37,-10.20,-44.21,-0.14,-0.41,0.01
0.19,-1.18,8.02,1.56,-10.86,-44.36,0.04,-0.32,0.06
1.12,0.21,10.11,1.59,-10.36,-43.99,-0.02,-0.37,-0.05
0.07,0.17,10.26,1.59,-10.82,-43.92,-0.05,-0.38,-0.15
0.55,-0.11,10.18,1.52,-10.20,-44.14,-0.03,-0.43,-0.19
0.42,0.45,9.92,1.89,-10.83,-43.32,-0.03,-0.40,-0.11
1.30,-0.02,10.11,2.19,-10.96,-43.54,-0.05,-0.46,-0.17
0.70,-0.11,10.24,2.72,-10.60,-44.53,0.00,-0.52,-0.53
1.43,0.40,12.67,2.86,-10.63,-43.80,-0.06,-0.44,-1.17
-1.81,-0.52,6.12,4.14,-11.11,-43.91,-0.17,-0.51,-1.35
1.29,0.38,9.24,4.88,-11.08,-43.55,-0.06,-0.78,-1.06
1.35,-0.02,9.86,4.57,-11.52,-43.66,-0.04,-0.58,-1.09
0.45,0.29,9.44,5.25,-11.37,-43.79,-0.07,-0.44,-1.14
-0.66,0.47,10.42,5.51,-11.56,-43.89,-0.23,-0.58,-1.95
0.26,0.96,9.85,7.69,-11.58,-44.10,-0.15,-0.48,-2.32
0.52,0.02,9.86,8.77,-11.56,-42.84,-0.21,-0.28,-2.06
0.10,-1.00,10.27,9.79,-11.24,-41.60,-0.16,-0.25,-1.25
0.04,-0.31,10.33,10.73,-11.11,-43.00,-0.09,-0.26,-0.76
0.71,0.99,10.45,11.81,-10.80,-42.85,-0.22,-0.36,-0.79
0.25,0.39,10.71,12.77,-10.70,-43.13,-0.12,-0.50,-0.68
0.79,0.04,9.99,12.88,-10.14,-43.15,-0.05,-0.50,-0.65
0.43,0.01,10.52,13.33,-10.45,-43.16,-0.12,-0.49,-0.76
0.37,-0.14,10.34,14.07,-9.92,-43.57,-0.12,-0.36,-0.93
0.25,0.14,10.03,14.06,-9.62,-43.01,-0.12,-0.31,-1.25
0.37,0.01,9.99,15.19,-8.97,-43.12,-0.13,-0.24,-1.40
0.53,0.11,10.15,15.95,-8.61,-42.24,-0.12,-0.30,-1.25
1.49,-0.24,9.97,17.10,-7.83,-42.05,-0.11,-0.35,-1.20
0.88,1.35,10.81,17.74,-7.53,-42.85,-0.12,-0.44,-0.74
0.40,0.42,10.40,17.92,-7.56,-43.07,-0.07,-0.42,-0.39
1.13,-0.24,9.58,18.27,-6.90,-42.36,-0.12,-0.40,-0.94
0.77,1.00,9.81,18.72,-6.27,-42.01,-0.10,-0.33,-0.98
0.77,-0.11,9.98,19.25,-6.21,-42.03,-0.18,-0.43,-0.92
0.31,-0.52,10.11,19.80,-5.69,-41.58,-0.08,-0.43,-0.90
0.47,0.38,10.23,20.64,-5.52,-42.17,-0.13,-0.41,-1.24
0.24,-0.13,10.60,21.10,-4.53,-41.55,-0.14,-0.38,-1.40
0.37,0.52,9.95,21.32,-3.86,-41.26,-0.07,-0.46,-1.05
0.26,0.67,10.17,21.54,-3.86,-41.41,-0.11,-0.48,-0.69
0.17,0.38,10.20,22.01,-3.55,-41.92,-0.14,-0.54,-0.94
1.13,0.12,8.85,22.22,-2.75,-41.32,-0.08,-0.35,-1.30
0.35,-0.01,9.59,23.30,-2.18,-41.79,-0.11,-0.50,-1.05
0.31,-0.02,10.28,23.21,-2.29,-42.41,-0.06,-0.47,-0.78
0.48,-0.18,10.41,24.22,-1.51,-41.17,-0.08,-0.37,-0.64
0.96,0.05,10.16,24.52,-1.29,-41.61,-0.08,-0.28,-0.24
0.80,0.24,9.85,24.31,-1.29,-41.83,-0.04,-0.42,0.06
0.31,0.39,10.11,24.01,-1.32,-42.17,-0.06,-0.49,-0.13
0.34,0.24,9.68,24.47,-0.73,-42.24,-0.13,-0.50,-0.80
-0.07,0.63,9.20,24.67,-0.22,-41.99,-0.14,-0.58,-1.03
0.48,0.50,9.47,24.89,0.79,-42.44,0.12,-0.23,-1.19
0.19,0.47,10.02,25.04,1.59,-41.90,-0.06,-0.75,-0.91
0.51,0.28,9.81,24.69,1.86,-42.17,0.03,-1.31,-0.91
1.08,2.15,8.71,24.04,3.07,-42.63,-0.05,-0.20,-1.60
0.43,3.09,9.05,24.74,4.55,-42.78,-0.31,-0.20,-2.61
-0.10,0.14,10.13,26.21,9.02,-42.28,-0.25,-0.33,-1.80
0.27,-0.21,9.38,26.54,10.04,-42.22,-0.16,-0.48,-1.46
1.19,0.10,10.04,26.09,10.90,-42.40,-0.06,-0.78,-0.93
0.50,0.22,10.32,25.67,11.21,-42.74,-0.03,-0.56,-0.43
-0.78,0.73,9.72,25.58,11.30,-42.71,-0.04,-0.25,-0.22
0.12,0.20,10.15,25.01,11.79,-43.00,-0.04,-0.39,-0.46
0.25,0.47,9.92,25.24,12.20,-43.10,-0.09,-0.34,-0.80
0.78,0.43,9.71,25.61,12.57,-43.20,-0.05,-0.32,-1.28
0.13,0.24,9.85,24.86,13.94,-42.75,-0.16,-0.39,-1.35
0.34,0.02,10.08,24.99,14.51,-42.68,-0.07,-0.51,-1.14
0.09,0.22,10.56,24.69,15.78,-42.79,-0.07,-0.37,-0.72
0.75,0.05,10.16,24.60,15.95,-42.78,-0.06,-0.67,-0.32
0.12,-0.12,9.91,24.45,16.02,-42.36,-0.07,-0.27,-0.16
0.32,0.36,10.06,24.39,16.85,-42.17,-0.07,-0.34,-0.25
-0.22,0.14,10.31,24.50,17.47,-42.14,-0.05,-0.31,-0.49
-0.09,0.20,9.99,24.48,17.51,-42.69,-0.06,-0.27,-0.31
0.48,0.04,10.27,24.14,17.60,-42.12,-0.02,-0.31,-0.43
1.10,0.27,9.61,24.58,17.55,-42.21,-0.03,-0.30,-0.74
1.06,-0.15,10.16,24.60,18.52,-42.94,-0.04,-0.44,-0.54
0.11,0.06,9.67,23.49,18.37,-42.30,0.00,-0.62,-0.36
0.09,0.01,10.26,23.36,19.13,-42.36,0.03,-0.57,-0.43
0.90,0.67,9.26,22.67,19.79,-42.75,-0.05,-0.47,-0.40
0.04,0.07,10.30,22.48,19.56,-42.53,-0.05,-0.41,-0.52
0.43,-0.07,9.94,23.00,20.86,-42.96,-0.01,-0.41,-0.51
-0.16,0.01,10.17,21.59,20.87,-43.12,-0.00,-0.42,-0.14
0.32,0.06,10.43,22.16,20.71,-43.70,-0.01,-0.37,0.00
0.50,0.15,9.37,21.98,20.80,-43.09,-0.02,-0.29,-0.55
-0.22,0.78,10.38,21.98,21.62,-43.63,0.01,-0.28,-0.96
0.57,0.01,9.67,21.86,22.03,-43.92,-0.14,-0.45,-1.48
0.22,0.26,9.96,21.54,23.53,-43.39,-0.13,-0.41,-1.68
-0.31,0.08,10.00,20.49,24.58,-43.38,-0.12,-0.41,-1.45
0.47,-0.17,10.57,20.34,25.15,-43.32,-0.02,-0.36,-0.72
0.27,0.09,9.92,20.10,25.33,-43.77,0.00,-0.43,-0.25
0.22,-0.05,9.82,19.88,25.61,-43.34,-0.02,-0.40,-0.41
-0.09,0.27,10.09,19.41,26.02,-43.42,-0.05,-0.39,-0.90
-0.34,-0.37,10.79,18.99,26.51,-43.86,-0.05,-0.46,-1.36
0.04,0.33,9.68,18.49,27.40,-42.98,-0.11,-0.35,-1.42
-0.70,0.14,10.59,17.54,28.24,-43.45,-0.05,-0.36,-1.25
-0.02,0.23,10.21,16.98,28.68,-43.06,-0.06,-0.40,-1.00
0.34,-0.17,9.84,17.26,29.33,-43.34,-0.04,-0.38,-0.83
0.73,-0.05,9.83,16.62,29.28,-43.25,-0.05,-0.38,-0.60
0.13,0.23,10.14,16.16,30.01,-42.52,-0.04,-0.44,-0.45
-0.20,0.35,10.31,15.97,30.01,-42.72,-0.01,-0.32,-0.41
0.21,0.02,9.94,16.06,29.98,-43.15,-0.04,-0.42,-0.39
-0.06,-1.79,10.01,15.92,30.40,-42.82,-0.06,-0.53,-0.41
-0.19,0.72,9.51,15.16,30.78,-42.96,0.02,-0.35,-0.43
-0.01,0.20,10.10,14.62,30.93,-42.69,-0.02,-0.27,-0.46
0.22,-0.06,10.18,14.67,31.18,-42.96,-0.08,-0.54,-0.70
-0.01,-0.27,9.88,13.99,31.83,-43.42,-0.01,-0.41,-0.85
-0.17,0.10,9.74,13.24,31.89,-43.48,-0.06,-0.40,-0.85
0.23,-1.43,9.83,11.41,33.13,-43.12,-0.09,0.04,-2.03
-2.94,1.95,11.26,11.63,34.04,-43.36,-0.05,-0.44,-0.89
1.22,1.23,10.32,10.42,34.48,-43.07,0.01,-0.46,-0.15
1.65,-0.99,9.77,10.67,34.39,-43.06,-0.05,-0.35,-0.85
-2.30,-2.66,9.77,9.56,34.00,-43.70,0.01,-0.46,-0.05
-0.26,-0.27,10.37,10.51,34.67,-43.23,-0.01,0.78,0.05
1.03,0.70,11.55,11.41,34.61,-43.16,-0.02,-0.41,0.13
1.98,0.04,10.01,11.34,34.33,-42.50,-0.03,-0.28,-0.18
0.51,0.03,9.69,11.31,34.60,-42.84,-0.04,-0.09,-0.47
-0.38,0.70,10.40,11.20,34.73,-43.06,-0.02,-0.38,-0.04
0.96,0.06,9.99,11.46,33.92,-42.63,-0.01,-0.39,0.07
0.47,-0.10,10.04,11.59,34.32,-43.48,-0.00,-0.41,0.06
0.59,-0.17,10.08,11.65,34.58,-43.13,-0.02,-0.38,0.05
0.63,-0.03,9.97,11.82,34.36,-43.42,-0.02,-0.40,0.06
0.50,0.11,10.18,12.00,34.30,-42.33,-0.03,-0.39,0.06
0.67,0.25,10.05,12.60,34.39,-42.85,-0.02,-0.39,0.06
0.55,0.19,10.14,11.63,34.36,-42.97,-0.01,-0.40,0.06
0.55,0.15,10.04,12.06,34.65,-42.79,-0.01,-0.39,0.06
0.53,0.01,10.12,11.72,34.00,-42.62,-0.01,-0.40,0.06
0.65,-0.04,10.04,11.71,33.94,-43.53,-0.02,-0.39,0.06
0.58,-0.12,9.97,11.34,34.04,-42.58,-0.02,-0.40,0.06
0.57,-0.04,10.00,12.03,33.43,-43.19,-0.03,-0.39,0.06
0.61,0.27,10.06,11.91,33.86,-42.66,-0.02,-0.40,0.06
0.56,0.19,10.02,11.77,34.13,-42.69,-0.02,-0.40,0.07
0.57,0.10,10.20,11.81,34.01,-42.74,-0.01,-0.40,0.06
0.51,-0.04,10.01,11.56,33.75,-42.39,-0.01,-0.40,0.06
0.60,-0.06,10.10,11.91,33.92,-42.18,-0.02,-0.40,0.06
0.52,0.00,9.93,11.68,33.98,-43.04,-0.02,-0.39,0.06
0.64,0.04,9.94,11.15,33.82,-42.72,-0.02,-0.41,0.06
0.61,0.07,10.01,11.25,34.07,-43.26,-0.02,-0.40,0.06
0.54,0.14,9.99,11.59,33.73,-43.06,-0.02,-0.40,0.06
0.60,0.13,10.08,12.04,33.65,-43.34,-0.01,-0.40,0.06
0.61,0.08,9.99,11.68,33.72,-43.45,-0.00,-0.43,0.06
0.98,0.12,9.80,12.07,32.96,-42.50,0.08,-0.68,-0.31
0.19,-0.24,10.00,10.80,34.07,-43.80,0.04,-1.08,-0.05
0.10,-0.02,9.96,10.44,33.98,-43.48,-0.09,0.16,-0.48
1.00,-0.06,10.27,10.84,34.19,-42.94,-0.05,-0.70,-0.06
-0.06,0.16,9.99,10.39,33.66,-43.72,-0.03,-0.31,0.06
0.28,0.39,9.91,10.92,33.89,-43.22,-0.08,-0.09,-0.27
0.60,0.14,9.55,10.48,34.04,-43.19,-0.07,-0.57,-0.55
0.24,-1.79,10.25,10.04,34.16,-43.80,-0.01,-0.38,-0.39
0.47,-0.09,10.06,9.88,34.07,-43.58,-0.02,-0.33,-0.43
0.39,0.16,10.32,9.34,34.89,-43.10,-0.05,-0.45,-0.28
0.43,-0.50,10.28,9.47,34.74,-43.63,-0.02,-0.47,-0.28
0.60,0.02,10.17,9.08,34.60,-43.09,-0.06,-0.46,-0.44
0.55,1.78,9.73,8.74,35.33,-43.20,-0.05,-0.43,-0.28
0.74,0.09,9.75,8.33,35.09,-43.57,-0.05,-0.44,-0.37
0.48,0.04,10.23,8.04,35.11,-42.79,-0.06,-0.47,-0.40
0.22,-0.12,10.11,7.10,34.89,-44.04,-0.07,-0.47,-0.70
0.11,0.29,9.87,5.47,35.40,-43.39,-0.11,-0.30,-1.05
0.15,-0.04,10.02,5.01,35.33,-43.23,-0.09,-0.36,-1.00
0.87,0.15,10.29,4.43,35.72,-43.85,-0.10,-0.34,-1.02
0.06,0.72,10.39,4.41,35.71,-43.36,-0.05,-0.36,-0.65
-0.75,-0.04,10.27,3.80,35.82,-43.70,-0.10,-0.36,-0.72
0.13,-0.45,10.17,3.67,35.72,-43.83,-0.05,-0.31,-0.52
0.00,-0.23,10.35,2.73,35.88,-44.18,-0.05,-0.40,-0.41
1.47,-0.04,9.93,2.60,36.16,-43.77,-0.09,-0.39,-0.61
1.21,0.60,11.00,1.91,35.82,-43.64,-0.09,-0.42,-0.68
-0.03,1.61,10.14,1.33,35.85,-43.26,-0.11,-0.42,-0.68
1.18,0.83,10.47,0.98,35.52,-43.35,-0.09,-0.47,-0.56
0.71,-1.57,9.78,0.80,35.66,-43.63,-0.04,-0.46,-0.55
0.44,-0.86,10.08,-0.38,35.28,-43.95,-0.03,-0.35,-0.37
0.45,0.08,9.83,-0.53,35.30,-44.18,-0.05,-0.34,0.04
0.82,0.24,9.91,-0.04,35.68,-43.70,-0.05,-0.45,-0.45
0.84,-0.37,9.80,-1.42,35.71,-43.67,-0.05,-0.37,-0.42
0.78,0.19,9.86,-1.71,35.53,-44.14,-0.08,-0.41,-0.60
0.35,0.07,10.33,-1.99,35.18,-43.64,-0.08,-0.42,-0.85
0.53,-0.17,10.01,-2.86,34.70,-44.26,-0.06,-0.41,-0.83
0.32,-0.16,10.44,-3.54,35.05,-45.22,-0.10,-0.48,-0.88
0.04,0.02,10.86,-4.12,34.60,-43.91,-0.10,-0.48,-0.93
0.46,-0.89,11.24,-4.87,34.95,-44.50,-0.11,-0.34,-0.83
-0.57,-0.22,10.70,-5.13,34.51,-44.34,-0.10,-0.36,-0.75
0.54,0.47,9.72,-5.93,33.82,-44.23,-0.12,-0.37,-0.91
0.24,-0.40,9.44,-6.20,34.10,-43.73,-0.10,-0.34,-1.01
-0.01,0.81,8.51,-6.53,33.86,-44.52,-0.11,-0.32,-0.94
0.42,0.07,10.79,-6.71,33.18,-44.18,-0.09,-0.39,-0.83
1.18,0.57,9.38,-7.51,32.81,-44.53,-0.08,-0.36,-0.80
-0.05,0.85,11.46,-7.99,32.81,-44.74,-0.09,-0.42,-0.70
0.05,-0.25,10.53,-8.64,32.87,-45.37,-0.06,-0.31,-0.38
0.32,-0.16,10.34,-8.96,32.46,-45.06,-0.06,-0.39,-0.32
0.03,0.61,10.31,-8.75,32.11,-44.97,-0.05,-0.41,-0.62
0.78,-0.89,11.89,-9.35,31.94,-45.72,-0.06,-0.34,-0.53
0.04,0.01,9.89,-9.75,31.95,-44.48,-0.04,-0.37,-0.28
0.55,0.40,9.15,-9.78,31.32,-45.10,-0.03,-0.34,-0.66
0.73,-0.48,9.83,-10.06,31.29,-44.52,-0.05,-0.44,-0.52
0.56,-0.04,9.29,-10.58,31.01,-45.05,-0.06,-0.36,-0.57
0.29,0.36,9.95,-10.44,30.87,-45.48,-0.08,-0.41,-0.53
0.21,0.05,10.57,-11.14,30.46,-44.96,-0.05,-0.37,-0.48
0.39,0.62,10.37,-12.04,30.18,-44.68,-0.08,-0.48,-0.49
1.38,-0.23,9.71,-12.10,30.46,-44.96,-0.07,-0.40,-0.52
0.76,0.38,9.73,-11.69,30.24,-45.02,-0.09,-0.41,-0.67
0.70,0.48,9.66,-12.28,29.63,-44.93,-0.09,-0.45,-0.81
0.81,-0.04,9.86,-12.88,29.52,-44.59,-0.10,-0.43,-0.63
0.45,-0.16,10.58,-13.17,29.42,-44.96,-0.03,-0.32,-0.41
0.72,-0.57,9.80,-13.36,29.80,-45.26,-0.05,-0.42,-0.67
0.28,0.00,10.86,-13.12,29.03,-45.76,-0.07,-0.45,-0.59
-0.27,0.19,10.28,-13.77,28.08,-46.17,-0.04,-0.42,-0.56
0.59,0.34,9.37,-14.19,28.21,-45.38,-0.04,-0.37,-0.61
0.44,-0.01,10.04,-14.66,27.29,-45.64,-0.05,-0.35,-0.50
-0.22,0.81,10.61,-14.91,26.67,-45.25,-0.10,-0.44,-0.74
0.60,-0.06,9.43,-15.24,26.54,-45.10,-0.05,-0.34,-0.49
0.52,0.32,9.63,-15.73,26.34,-45.45,-0.06,-0.41,-0.36
0.81,-0.17,10.32,-15.76,25.52,-45.18,-0.02,-0.44,-0.41
0.80,-0.62,10.76,-16.02,25.52,-45.38,-0.06,-0.43,-0.48
0.08,0.50,10.19,-16.52,25.46,-45.53,-0.05,-0.42,-0.39
0.77,0.11,10.93,-16.28,25.01,-45.10,-0.07,-0.47,-0.55
0.51,0.10,9.73,-16.81,24.74,-45.29,-0.07,-0.41,-0.78
-0.63,0.17,9.99,-17.35,23.95,-45.00,-0.10,-0.40,-0.68
0.47,0.01,10.45,-17.48,24.01,-45.07,-0.08,-0.48,-0.59
0.47,0.08,9.93,-17.60,23.08,-45.12,-0.08,-0.41,-0.68
0.50,-0.17,10.16,-17.63,22.42,-45.35,-0.08,-0.41,-0.71
0.19,-0.29,10.05,-17.60,21.79,-45.83,-0.08,-0.39,-0.81
1.47,0.10,9.23,-17.89,21.12,-45.67,-0.06,-0.35,-0.70
1.50,-0.15,9.88,-17.93,20.77,-44.94,-0.08,-0.37,-0.66
1.13,-0.01,9.60,-18.21,19.92,-45.38,-0.09,-0.36,-0.86
-0.56,0.37,9.55,-17.79,19.07,-45.34,-0.09,-0.43,-0.86
0.31,0.37,9.78,-18.05,18.55,-45.34,-0.10,-0.31,-0.76
0.73,-0.06,10.18,-18.34,17.82,-45.06,-0.07,-0.33,-0.66
0.60,0.47,10.01,-17.95,17.79,-45.41,-0.09,-0.37,-0.70
1.11,0.31,10.05,-18.12,17.17,-46.30,-0.08,-0.40,-0.85
0.20,-0.06,10.10,-18.77,17.41,-45.26,-0.13,-0.38,-0.99
0.70,-0.31,10.45,-19.04,16.15,-45.10,-0.12,-0.42,-0.98
0.52,0.35,10.47,-18.72,15.81,-45.69,-0.09,-0.40,-0.82
0.19,0.27,10.04,-18.58,15.32,-45.45,-0.08,-0.45,-0.85
0.93,0.24,9.96,-18.78,14.62,-45.26,-0.11,-0.29,-0.86
0.10,0.13,10.15,-19.35,14.16,-44.77,-0.09,-0.37,-0.77
0.48,0.11,10.02,-19.38,13.69,-45.62,-0.05,-0.41,-0.61
0.77,0.25,9.96,-19.01,13.49,-45.66,-0.07,-0.42,-0.73
0.72,-0.35,10.29,-19.01,12.72,-46.32,-0.15,-0.33,-1.16
0.19,-1.10,9.58,-19.00,11.81,-45.56,-0.12,-0.43,-0.90
1.13,-0.78,9.73,-18.49,10.90,-45.24,-0.09,-0.35,-0.64
0.43,0.23,9.73,-18.30,10.20,-45.48,-0.08,-0.45,-0.70
0.06,0.61,9.61,-18.34,9.50,-45.64,-0.10,-0.43,-0.72
0.19,0.51,10.01,-18.31,9.11,-45.35,-0.09,-0.44,-0.67
0.52,0.06,10.04,-18.15,9.05,-45.53,-0.05,-0.38,-0.52
0.11,0.19,10.24,-18.43,8.40,-44.53,-0.04,-0.37,-0.52
0.60,0.29,9.81,-18.04,8.23,-44.59,-0.04,-0.32,-0.57
0.83,0.36,10.19,-17.66,8.10,-45.15,-0.07,-0.36,-0.63
0.93,0.31,9.78,-17.71,7.51,-45.40,-0.04,-0.36,-0.54
0.57,0.23,10.24,-17.55,7.21,-45.06,-0.09,-0.43,-0.73
0.02,0.55,9.84,-17.49,6.80,-45.22,-0.09,-0.40,-0.80
0.45,1.66,9.81,-17.45,6.36,-45.25,-0.13,-0.57,-0.99
1.01,-0.04,10.71,-17.26,5.45,-45.38,-0.09,-0.43,-0.97
0.79,-0.17,9.27,-16.79,4.98,-45.67,-0.08,-0.38,-0.87
0.45,-0.70,9.43,-16.62,4.71,-45.22,-0.11,-0.44,-0.80
-0.19,0.34,11.41,-16.35,3.35,-44.88,-0.08,-0.48,-0.85
1.06,-0.57,9.11,-16.12,2.34,-45.38,-0.08,-0.35,-0.72
0.06,0.11,9.59,-15.61,1.96,-45.02,-0.09,-0.42,-0.64
0.70,-0.37,10.12,-15.59,1.59,-44.77,-0.07,-0.44,-0.56
0.05,0.52,9.77,-15.71,1.02,-45.40,-0.04,-0.47,-0.13
0.26,-0.60,10.26,-15.42,-0.41,-45.16,-0.04,-0.45,-0.58
0.25,1.02,9.48,-15.02,0.16,-45.79,-0.04,-0.35,-0.19
1.74,0.09,9.45,-14.67,-0.45,-45.62,-0.06,-0.38,-0.53
1.03,0.15,9.32,-14.76,-0.22,-45.64,-0.01,-0.35,-0.03
1.55,-0.24,10.11,-14.47,-0.57,-45.10,-0.07,-0.49,-0.76
0.87,0.49,10.14,-14.13,-0.99,-45.54,-0.06,-0.52,-0.92
0.85,-0.85,10.19,-13.83,-1.58,-45.59,-0.11,-0.45,-1.28
0.20,0.32,8.91,-13.33,-2.76,-44.90,-0.10,-0.33,-0.87
1.09,0.17,10.32,-13.17,-2.66,-44.77,-0.06,-0.33,-0.73
0.45,0.22,9.75,-12.91,-2.73,-45.57,-0.06,-0.44,-0.85
0.47,0.36,10.51,-11.85,-3.70,-45.07,-0.07,-0.38,-0.86
0.17,0.08,9.91,-11.58,-4.33,-45.83,-0.04,-0.35,-0.74
0.47,-0.07,10.17,-11.33,-4.65,-45.06,-0.09,-0.40,-0.65
0.43,0.37,10.19,-10.95,-5.14,-45.18,-0.08,-0.38,-0.77
0.63,0.45,9.75,-10.49,-5.66,-45.22,-0.15,-0.21,-1.11
-0.62,1.26,9.99,-9.32,-6.46,-44.48,-0.18,-0.14,-1.65
-1.72,0.45,10.37,-8.40,-7.18,-44.39,-0.10,-0.39,-1.39
0.29,-0.28,10.80,-7.34,-7.64,-44.59,-0.11,-0.30,-0.41
0.77,0.09,10.17,-7.75,-7.48,-45.02,-0.05,-0.40,0.05
0.36,0.52,10.01,-7.37,-7.98,-44.39,-0.03,-0.43,0.05
0.42,0.85,10.01,-7.48,-7.97,-43.98,-0.02,-0.39,-0.18
1.11,0.48,9.87,-7.66,-7.42,-44.72,-0.02,-0.44,-0.38
0.45,0.09,10.70,-6.65,-7.89,-44.80,-0.04,-0.45,-0.72
0.97,0.23,10.78,-6.21,-8.26,-44.48,-0.09,-0.30,-0.87
0.12,0.35,10.95,-5.58,-8.35,-44.93,-0.12,-0.45,-0.99
0.03,-0.09,10.18,-5.31,-9.08,-44.83,-0.11,-0.54,-1.22
0.14,-0.67,8.86,-4.25,-9.19,-44.30,-0.12,-0.32,-0.98
0.82,-0.07,10.64,-3.60,-9.05,-44.14,-0.08,-0.30,-0.96
0.91,-0.04,10.35,-3.08,-9.76,-44.40,-0.13,-0.39,-0.88
-0.06,-0.10,10.14,-2.46,-9.87,-45.25,-0.06,-0.46,-0.92
0.76,-0.65,11.05,-1.53,-10.17,-44.43,-0.08,-0.57,-0.94
0.78,-0.23,12.63,-0.63,-9.82,-44.26,-0.04,-0.38,-1.10
0.36,0.38,9.89,0.83,-10.25,-44.24,-0.15,-0.44,-1.08
0.97,0.70,9.83,0.80,-10.84,-44.71,-0.10,-0.43,-0.70
0.77,0.00,9.62,1.34,-10.98,-44.45,-0.08,-0.48,-0.59
0.52,-0.10,9.77,1.49,-11.78,-44.75,-0.04,-0.37,-0.51
0.52,0.21,9.70,2.02,-11.34,-44.93,-0.05,-0.36,-0.53
1.06,-0.09,9.94,2.06,-11.34,-44.27,-0.04,-0.37,-0.41
0.54,0.26,9.60,2.27,-11.58,-44.12,-0.05,-0.42,-0.29
0.58,0.31,9.75,3.05,-11.62,-44.30,-0.03,-0.44,-0.37
-0.06,-0.24,10.45,3.64,-11.71,-43.98,-0.06,-0.55,-0.60
0.89,-0.58,10.58,3.35,-11.52,-43.70,-0.08,-0.40,-0.56
0.46,-0.38,9.93,4.33,-12.23,-43.53,-0.08,-0.37,-0.58
0.76,-0.38,10.07,5.01,-12.47,-44.17,-0.10,-0.41,-0.56
0.77,-0.13,10.14,5.36,-12.06,-43.41,-0.06,-0.73,-0.83
0.44,0.46,9.89,5.31,-12.25,-43.42,-0.05,-0.61,-0.96
-0.34,-0.20,10.16,5.69,-12.01,-43.26,-0.06,-0.43,-0.83
0.24,-0.34,10.06,6.17,-11.66,-42.28,-0.07,-0.40,-0.49
0.73,-0.06,10.16,6.80,-11.98,-43.34,-0.06,-0.38,-0.32
0.32,0.58,10.42,7.23,-11.90,-42.87,-0.09,-0.49,-0.99
-0.29,-1.33,10.16,8.18,-11.79,-43.26,-0.04,-0.21,-0.64
0.32,-0.24,10.28,8.70,-11.77,-42.87,-0.03,-0.08,-0.01
0.02,1.12,10.06,9.02,-11.50,-43.88,-0.05,-0.57,-0.41
1.11,-0.30,9.99,9.11,-11.66,-43.72,-0.10,-0.77,-0.90
1.79,-0.95,8.23,9.06,-11.81,-43.44,-0.04,0.01,-0.12
1.20,-0.16,9.61,9.81,-11.47,-43.32,-0.06,-0.34,-0.30
0.22,0.38,9.99,10.61,-11.30,-43.91,-0.05,-0.41,-0.32
0.72,0.17,10.03,10.41,-11.34,-42.93,-0.08,-0.36,-0.43
0.22,-0.01,9.83,11.08,-11.11,-43.10,-0.07,-0.40,-0.51
0.42,-0.13,9.92,11.33,-10.90,-42.93,-0.06,-0.34,-0.16
0.69,0.53,10.30,11.53,-11.22,-43.16,-0.05,-0.55,-0.32
0.76,0.21,9.58,11.03,-10.30,-42.41,-0.05,-0.47,-0.22
0.43,0.30,10.27,11.58,-10.99,-43.07,-0.03,-0.11,-0.15
-0.04,-0.90,11.54,12.25,-10.54,-42.59,-0.05,-0.20,0.08
1.06,0.28,10.72,12.39,-11.06,-42.87,-0.03,-0.69,0.07
1.16,0.54,9.79,12.80,-10.83,-41.74,-0.06,-0.44,0.07
-0.04,0.45,10.77,12.15,-10.95,-42.25,-0.02,-0.48,0.06
0.73,0.17,10.07,12.58,-10.57,-42.84,-0.03,-0.32,0.07
0.62,0.09,10.02,12.12,-10.83,-42.44,-0.02,-0.41,0.06
0.62,0.24,9.95,12.31,-10.89,-42.39,-0.02,-0.36,0.06
0.65,0.17,10.10,12.06,-10.99,-42.65,-0.01,-0.42,0.06
0.71,0.04,9.99,12.38,-11.05,-42.79,-0.01,-0.39,0.06
0.47,-0.01,10.09,12.45,-11.22,-42.39,-0.01,-0.41,0.05
0.40,0.00,10.00,12.44,-11.21,-42.63,-0.01,-0.40,0.06
0.45,-0.03,10.04,12.44,-11.14,-43.07,-0.02,-0.39,0.06
0.57,0.07,10.13,12.63,-10.96,-41.80,-0.02,-0.38,0.06
0.67,0.14,10.07,12.29,-10.83,-42.25,-0.02,-0.40,0.06
0.57,0.17,10.01,12.12,-10.71,-42.78,-0.02,-0.40,0.05
0.68,0.14,10.07,12.23,-10.61,-42.36,-0.01,-0.40,0.07
0.62,0.02,10.09,12.36,-11.25,-42.71,-0.02,-0.40,0.06
0.47,0.02,10.16,12.61,-10.35,-43.44,-0.01,-0.40,0.06
0.52,-0.04,10.09,12.51,-11.03,-43.26,-0.02,-0.39,0.06
0.58,0.09,10.07,12.39,-11.14,-42.96,-0.02,-0.39,0.06
0.66,0.09,9.97,12.54,-11.01,-42.28,-0.02,-0.39,0.06
0.64,0.15,10.03,12.47,-11.27,-43.15,-0.02,-0.40,0.06
0.63,0.08,9.98,12.44,-11.25,-42.27,-0.01,-0.40,0.06
0.47,0.12,10.09,12.10,-11.15,-42.66,-0.02,-0.40,0.06
0.57,0.10,10.06,12.39,-11.17,-41.90,-0.02,-0.41,0.06
-1.31,-0.34,9.86,12.51,-10.73,-42.69,-0.02,-0.44,0.06
0.65,0.14,10.44,11.65,-10.65,-42.82,0.04,-0.65,0.01
1.25,-0.03,10.65,11.79,-10.74,-43.06,-0.01,-1.18,0.01
0.11,-0.06,10.17,10.93,-10.35,-43.10,-0.06,-1.05,0.06
-0.52,0.04,9.61,10.45,-10.87,-42.74,-0.03,-0.37,0.05
0.16,-0.12,10.22,10.22,-11.15,-43.36,0.02,-0.34,0.06
0.09,0.27,9.97,10.86,-10.55,-43.07,0.01,-0.21,0.05
1.81,0.02,10.25,10.63,-11.03,-42.94,0.00,-0.00,0.06
-0.35,-0.40,10.14,11.37,-10.52,-42.36,0.03,0.49,-0.03
0.42,0.16,5.52,13.10,-11.02,-41.23,-0.08,-0.65,-0.05
0.70,0.16,10.60,12.53,-10.38,-41.61,-0.01,-0.35,0.01
0.19,0.67,9.60,12.34,-10.38,-42.75,0.02,-0.43,-0.05
0.39,0.70,10.68,12.45,-10.29,-42.20,-0.02,-0.43,-0.33
0.24,0.06,10.19,12.80,-10.17,-41.70,-0.09,-0.48,-0.53
0.94,-0.23,9.71,13.02,-10.45,-42.36,-0.11,-0.41,-0.70
2.40,0.16,9.64,13.56,-10.01,-43.01,-0.09,-0.43,-1.01
-0.32,-0.12,9.98,14.31,-10.03,-42.81,-0.13,-0.27,-1.32
1.49,-1.34,9.23,15.21,-9.73,-41.92,-0.16,-0.39,-1.38
0.34,-0.48,10.60,16.00,-9.16,-41.68,-0.09,-0.49,-1.11
0.34,0.52,11.36,16.94,-8.93,-42.44,-0.12,-0.46,-1.18
0.57,-0.58,9.96,16.87,-8.59,-42.08,-0.07,-0.46,-0.53
0.58,0.48,9.33,17.60,-8.18,-42.18,-0.04,-0.57,-0.25
0.27,0.27,10.08,17.39,-8.11,-42.18,-0.00,-0.61,-0.23
0.69,0.23,10.37,17.11,-7.73,-42.90,-0.04,-0.61,-0.44
0.29,0.45,9.93,17.44,-7.78,-42.69,-0.08,-0.62,-0.76
0.22,0.30,9.76,17.35,-7.15,-41.30,-0.08,-0.51,-0.99
0.20,-0.21,10.14,18.02,-6.64,-40.91,-0.07,-0.48,-1.08
0.00,-0.07,9.68,18.44,-6.26,-41.95,-0.05,-0.52,-1.23
0.35,-0.04,10.14,19.37,-5.86,-42.12,-0.06,-0.44,-1.01
0.22,0.07,10.09,19.58,-5.39,-42.27,-0.04,-0.42,-0.38
0.35,0.32,9.68,20.30,-4.95,-42.03,-0.06,-0.28,-0.42
0.14,0.22,10.17,20.33,-4.71,-41.79,-0.04,-0.25,-0.74
0.57,-0.27,9.86,21.05,-3.80,-42.15,-0.03,-0.14,-0.75
0.24,0.11,10.31,21.63,-3.73,-42.33,-0.04,-0.38,-0.19
0.06,0.16,10.15,21.67,-3.79,-43.09,-0.04,-0.36,-0.12
-0.03,0.63,10.31,21.94,-3.73,-42.33,-0.06,-0.31,-0.43
0.57,0.25,9.75,22.24,-3.73,-42.08,-0.12,-0.28,-0.59
0.22,0.69,10.03,22.98,-3.65,-42.09,-0.07,-0.38,-0.38
0.40,0.01,9.97,23.22,-3.74,-41.64,-0.06,-0.36,-0.44
0.35,0.32,10.45,23.14,-2.92,-41.90,-0.08,-0.37,-0.51
0.22,-0.42,10.06,23.55,-2.66,-41.98,-0.08,-0.35,-0.69
-0.07,0.11,10.03,24.19,-2.34,-41.99,-0.04,-0.39,-0.54
0.24,0.05,10.32,24.36,-2.25,-41.46,-0.06,-0.42,-0.39
0.29,-0.06,10.13,24.32,-1.39,-41.64,-0.03,-0.42,-0.37
0.61,0.67,9.93,24.35,-1.48,-41.82,-0.06,-0.36,-0.49
0.44,0.80,9.99,24.33,-1.67,-41.45,-0.04,-0.38,-0.49
-0.19,0.83,10.44,24.74,-0.73,-41.65,-0.05,-0.40,-0.48
0.44,0.34,10.05,24.92,-0.82,-41.98,-0.05,-0.39,-0.22
0.36,0.11,9.96,25.14,-0.44,-41.57,-0.01,-0.43,0.06
-0.03,0.27,10.21,24.74,-0.63,-41.76,-0.02,-0.44,-0.09
0.44,-0.05,9.39,25.14,-0.50,-41.51,-0.01,-0.38,-0.43
0.42,0.14,10.00,24.85,-0.10,-42.46,-0.00,-0.35,-0.25
0.47,0.02,10.08,25.46,-0.09,-42.50,-0.03,-0.43,-0.00
0.34,0.14,10.10,25.23,-0.15,-42.33,-0.04,-0.38,-0.14
0.67,-0.04,9.96,25.17,0.20,-42.02,-0.04,-0.44,-0.13
0.44,0.10,9.96,24.90,0.26,-41.92,-0.02,-0.41,-0.12
0.45,-0.11,9.98,25.10,0.50,-41.74,-0.02,-0.44,-0.05
0.40,0.03,10.25,25.21,0.42,-41.42,-0.04,-0.43,-0.18
0.28,0.01,10.19,25.52,0.96,-41.54,-0.04,-0.42,-0.15
0.36,0.13,10.00,25.71,0.91,-41.65,-0.03,-0.39,-0.12
0.52,-0.09,10.03,26.00,1.52,-42.36,-0.02,-0.37,-0.10
0.19,0.14,10.27,25.49,1.15,-41.83,-0.03,-0.39,-0.08
0.39,0.01,10.12,25.96,1.20,-41.84,-0.04,-0.36,-0.27
0.55,0.30,9.94,26.48,1.55,-41.92,-0.05,-0.36,-0.33
0.03,0.24,10.31,26.78,1.37,-42.14,-0.04,-0.43,-0.23
0.19,0.29,10.11,26.83,2.37,-41.63,-0.04,-0.40,-0.22
0.32,-0.06,10.37,26.34,2.56,-41.57,-0.06,-0.39,-0.46
0.32,1.26,11.13,27.17,2.70,-40.88,-0.06,-0.36,-0.41
0.09,0.17,10.39,27.10,3.16,-41.46,-0.07,-0.45,-0.36
0.37,0.78,10.11,26.89,3.46,-42.11,-0.05,-0.19,-0.58
1.21,-0.38,8.78,26.70,4.19,-41.33,-0.02,-0.34,-0.52
0.55,0.04,9.86,26.94,4.33,-40.97,-0.05,-0.51,-0.29
-0.15,0.24,10.74,27.32,4.56,-42.18,-0.07,-0.48,-0.45
0.51,0.19,10.76,27.04,4.66,-41.26,-0.08,-0.37,-0.55
0.92,1.77,10.11,27.23,4.98,-41.19,-0.08,-0.38,-0.47
1.23,0.14,9.99,27.52,5.33,-42.01,-0.07,-0.45,-0.48
0.07,0.58,10.32,26.94,5.52,-41.65,-0.09,-0.47,-0.58
0.37,0.28,10.09,26.72,5.86,-41.26,-0.07,-0.44,-0.66
-0.23,0.18,10.74,26.25,6.42,-41.13,-0.06,-0.32,-0.85
0.03,-0.03,10.44,26.34,7.82,-41.19,-0.08,-0.41,-0.64
0.82,0.25,10.10,26.86,7.69,-41.23,-0.08,-0.40,-0.77
0.01,0.14,10.30,26.57,8.74,-41.48,-0.08,-0.39,-0.81
0.04,0.04,9.93,26.98,9.31,-40.63,-0.05,-0.39,-0.72
0.45,0.35,9.25,26.97,10.39,-40.92,-0.02,-0.34,-0.72
0.75,0.32,10.39,26.66,10.29,-41.27,-0.05,-0.42,-0.59
0.37,0.72,9.55,27.11,11.11,-40.88,-0.07,-0.43,-0.64
0.53,-0.12,9.32,27.17,12.06,-41.33,-0.10,-0.38,-0.98
0.42,0.68,10.19,26.79,12.39,-41.10,-0.07,-0.33,-1.05
1.83,-0.04,9.85,26.88,13.08,-40.85,-0.04,-0.42,-0.62
-0.02,0.52,10.74,26.53,13.52,-41.95,-0.10,-0.45,-0.56
0.75,-0.19,11.84,26.48,13.84,-41.26,-0.10,-0.44,-0.77
0.47,0.50,9.28,26.76,14.76,-41.99,-0.05,-0.43,-0.65
0.44,0.16,10.69,26.50,15.13,-41.41,-0.08,-0.46,-0.58
0.88,0.19,9.26,26.34,15.57,-41.55,-0.11,-0.50,-0.65
0.14,0.44,10.21,26.34,15.84,-40.84,-0.08,-0.46,-0.44
0.61,-0.19,10.07,25.87,16.30,-41.64,-0.07,-0.37,-0.69
-0.73,0.54,10.77,25.64,16.73,-41.20,-0.09,-0.42,-0.59
1.72,-0.91,9.78,25.93,17.17,-41.19,-0.06,-0.35,-0.50
0.98,-0.08,9.48,26.48,17.23,-41.63,-0.02,-0.39,-0.12
0.32,0.28,10.06,25.72,17.32,-41.63,-0.03,-0.47,-0.31
0.91,-0.46,8.11,25.64,17.90,-41.35,-0.18,-0.26,-0.87
-0.42,-0.80,11.17,25.68,18.50,-41.65,-0.07,-0.36,-0.92
0.45,0.00,10.47,25.74,19.03,-41.19,-0.05,-0.44,-0.67
0.22,0.93,9.90,24.99,19.18,-41.35,-0.04,-0.40,-0.48
1.32,-0.57,10.67,24.99,19.91,-41.46,-0.06,-0.41,-0.79
0.29,0.09,11.13,25.07,20.24,-41.92,-0.06,-0.43,-0.78
0.46,-0.42,10.06,25.01,20.91,-42.22,-0.02,-0.39,-0.55
0.55,0.04,10.34,24.92,21.85,-42.59,-0.06,-0.38,-0.75
0.81,0.11,10.75,24.10,22.60,-42.06,-0.09,-0.48,-0.80
0.20,0.52,9.99,23.62,22.67,-42.81,-0.06,-0.46,-0.59
1.17,0.23,9.38,22.98,24.35,-42.09,-0.04,-0.38,-0.69
0.49,0.36,10.01,22.77,25.18,-42.01,-0.05,-0.42,-0.65
-0.40,1.00,10.10,22.51,24.70,-42.33,-0.14,-0.32,-0.97
-0.02,0.89,10.32,22.49,25.39,-42.93,-0.06,-0.49,-0.80
1.26,-0.13,10.57,22.14,26.32,-42.65,-0.03,-0.42,-0.48
0.34,0.20,9.86,22.41,26.38,-42.68,-0.05,-0.42,-0.21
0.00,0.24,10.24,21.82,26.63,-42.93,-0.07,-0.42,-0.57
0.38,0.20,10.39,21.70,26.59,-42.87,-0.06,-0.43,-0.54
-0.37,0.42,11.25,21.13,27.30,-42.14,-0.09,-0.45,-0.58
0.00,0.90,8.92,21.02,27.11,-42.39,-0.12,-0.34,-0.82
-0.20,0.54,10.27,21.06,28.38,-41.49,-0.08,-0.40,-0.74
0.07,0.10,10.53,20.34,28.28,-42.68,-0.12,-0.38,-0.93
0.95,-0.39,8.66,19.61,29.20,-42.22,-0.05,-0.30,-1.39
0.39,0.57,9.49,19.06,29.89,-42.15,-0.12,-0.45,-0.98
0.99,1.22,7.98,18.49,30.06,-42.39,-0.15,-0.49,-0.63
-0.01,0.58,10.39,17.85,31.15,-42.05,-0.08,-0.41,-0.76
0.18,0.83,9.68,17.90,31.22,-42.75,-0.10,-0.42,-0.67
0.32,-0.75,7.72,17.07,30.90,-42.34,-0.11,-0.41,-0.76
0.75,-0.34,10.47,17.36,31.70,-41.92,-0.06,-0.40,-0.28
0.27,0.36,10.04,17.00,31.31,-42.91,-0.07,-0.32,-0.39
0.11,0.27,9.35,16.97,32.26,-43.03,-0.04,-0.39,-0.49
0.34,0.01,10.17,16.31,32.36,-43.28,-0.06,-0.40,-0.50
-0.11,0.73,10.16,16.06,32.68,-42.88,-0.06,-0.50,-0.50
0.34,0.45,10.29,15.87,32.55,-42.87,-0.05,-0.51,-0.47
1.75,1.50,9.30,15.43,33.00,-42.78,-0.14,-0.37,-1.02
-1.38,3.25,8.74,14.43,33.25,-41.98,-0.08,-0.30,-1.56
0.15,0.17,9.71,13.68,34.04,-42.28,-0.14,-0.34,-0.91
0.39,0.35,10.42,13.18,34.27,-42.43,-0.03,-0.47,-0.29
0.29,-0.18,10.25,12.67,34.65,-42.84,-0.04,-0.37,-0.24
0.17,-0.67,10.39,12.64,34.68,-43.17,-0.03,-0.39,-0.08
0.54,-0.02,10.03,12.86,34.36,-42.56,-0.06,-0.38,-0.16
0.54,-0.34,10.27,12.89,34.39,-42.62,-0.05,-0.37,-0.21
0.25,0.30,10.19,12.20,34.33,-42.90,-0.06,-0.54,-0.19
-1.23,0.14,9.99,12.28,33.67,-42.79,-0.08,-0.50,0.02
0.49,0.26,10.19,12.26,33.81,-42.58,0.01,-0.45,0.07
0.43,0.10,10.52,11.91,33.48,-42.44,-0.00,-0.38,0.07
0.37,-0.13,9.93,12.54,33.54,-43.07,0.01,-0.40,0.06
0.46,-0.10,10.02,11.69,33.54,-43.25,-0.03,-0.40,0.06
0.39,0.07,10.00,12.32,33.70,-43.22,-0.03,-0.41,0.06
0.33,0.22,10.07,12.58,33.67,-42.91,-0.03,-0.40,0.06
0.42,0.39,10.07,12.60,33.73,-42.88,-0.03,-0.40,0.06
0.42,0.34,10.05,12.47,33.59,-42.55,-0.01,-0.40,0.06
0.36,0.24,10.02,12.73,33.25,-42.96,-0.00,-0.40,0.06
0.45,0.09,10.13,12.51,33.35,-42.84,-0.01,-0.40,0.06
0.45,0.05,9.95,12.00,33.66,-42.78,-0.02,-0.40,0.06
0.45,0.04,9.99,12.12,33.53,-42.65,-0.03,-0.41,0.07
0.37,0.07,10.16,11.98,33.79,-42.20,-0.03,-0.39,0.06
0.37,0.22,9.99,12.51,33.70,-42.43,-0.02,-0.40,0.06
0.41,0.35,10.09,12.10,33.63,-41.70,-0.02,-0.40,0.06
0.47,0.22,10.05,12.41,34.22,-41.98,-0.01,-0.40,0.05
0.39,-0.01,10.07,12.45,33.59,-42.20,-0.02,-0.40,0.06
0.49,0.17,10.02,11.74,33.50,-41.70,-0.03,-0.40,0.06
0.32,0.21,10.13,11.96,33.69,-43.06,-0.02,-0.40,0.06
0.53,0.24,10.00,12.09,33.63,-42.65,-0.02,-0.40,0.05
0.48,0.19,10.02,12.50,33.06,-42.88,-0.01,-0.40,0.06
0.39,0.15,10.04,12.39,33.78,-42.77,-0.01,-0.39,0.07
0.41,0.06,10.02,11.78,33.53,-42.81,-0.01,-0.41,0.06
0.37,0.01,10.19,12.28,33.89,-42.88,-0.02,-0.40,0.06
0.45,0.10,10.02,12.06,33.40,-43.23,-0.02,-0.39,0.06
0.33,0.22,10.16,12.16,33.40,-43.57,-0.02,-0.41,0.06
0.40,0.19,10.15,12.00,33.78,-42.52,-0.02,-0.38,0.06
0.37,0.12,10.02,12.07,33.47,-42.47,-0.02,-0.40,0.06
0.50,0.19,10.04,12.36,33.56,-43.17,-0.02,-0.40,0.06
0.22,0.13,9.98,12.12,33.48,-42.74,-0.01,-0.40,0.06
0.42,0.03,9.99,12.26,33.16,-43.23,-0.02,-0.40,0.06
0.34,0.10,10.01,12.20,33.29,-43.09,-0.03,-0.39,0.06
0.50,0.11,9.98,12.63,33.31,-42.62,-0.02,-0.40,0.06
0.35,0.21,9.88,12.17,33.34,-42.77,-0.02,-0.39,0.06
0.42,0.08,10.14,11.85,33.02,-42.93,-0.01,-0.40,0.06
0.38,0.12,10.03,12.36,37.12,-43.58,-0.02,-0.40,0.07
0.44,0.19,10.19,12.00,33.69,-42.94,-0.02,-0.40,0.06
0.37,0.16,10.07,12.23,33.51,-43.69,-0.02,-0.41,0.06
0.50,0.14,10.03,11.94,33.82,-43.10,-0.02,-0.40,0.06
2.20,-0.26,8.50,12.03,33.78,-43.57,-0.13,-0.97,0.09
-2.58,0.46,12.22,10.61,33.78,-43.86,-0.33,-2.19,0.09
1.28,-1.06,6.67,9.49,34.14,-43.66,0.15,0.11,-0.01
-1.78,0.14,10.67,9.91,34.29,-43.76,0.02,0.19,0.02
0.22,0.27,10.27,10.63,33.81,-43.66,-0.06,-0.06,-0.08
0.04,0.06,9.76,11.24,34.22,-43.85,-0.10,-0.19,-0.56
0.49,0.42,10.11,10.87,33.92,-43.44,-0.12,-0.21,-1.48
0.34,0.49,9.91,10.01,34.92,-43.38,-0.11,-0.28,-1.74
-0.94,0.34,10.31,9.21,34.68,-44.05,-0.11,-0.32,-1.37
0.82,0.19,10.32,8.27,34.77,-43.38,-0.07,-0.35,-1.05
0.75,0.50,10.06,7.53,34.90,-43.50,-0.10,-0.36,-1.48
0.81,0.29,10.51,6.62,35.38,-43.89,-0.14,-0.48,-1.77
0.19,-0.84,10.76,5.48,35.43,-44.15,-0.14,-0.34,-1.68
0.49,0.28,10.18,5.25,35.53,-43.26,-0.12,-0.50,-1.13
-0.37,-0.01,10.48,3.86,35.69,-44.02,-0.04,-0.61,-0.79
1.53,-0.29,10.42,2.62,36.03,-44.53,-0.11,-0.35,-1.32
0.70,-0.83,9.20,1.96,36.14,-43.88,-0.14,-0.30,-1.58
1.57,-0.71,7.41,1.51,35.47,-44.84,-0.08,-0.37,-1.23
0.22,0.47,10.64,0.29,36.39,-44.05,-0.07,-0.44,-0.25
-0.25,0.44,10.57,0.53,35.81,-44.53,-0.06,-0.37,-0.31
0.63,-0.09,9.96,0.22,35.22,-44.55,-0.06,-0.24,-0.65
0.09,1.38,9.86,-0.76,35.19,-43.64,-0.05,-0.45,-0.46
1.52,1.13,9.20,-0.64,35.69,-44.21,-0.09,-0.36,-0.67
1.24,-0.62,10.17,-1.32,35.24,-43.85,-0.02,-0.42,-0.42
0.75,0.18,9.81,-1.46,34.65,-44.50,-0.05,-0.32,-0.31
-0.23,-1.20,10.21,-0.77,34.98,-44.39,-0.02,-0.34,-0.20
-0.55,-1.46,10.85,-0.29,34.51,-45.41,0.05,-0.28,0.26
1.34,0.22,10.17,1.46,34.57,-44.31,0.07,-0.06,0.27
1.49,-0.17,8.83,1.21,34.32,-43.98,0.07,-0.20,0.36
0.78,-0.54,10.33,1.48,33.81,-43.95,-0.03,-0.31,0.52
0.14,-0.95,10.88,2.31,34.42,-44.36,0.15,-0.51,0.54
0.16,0.18,9.42,2.10,34.52,-44.04,0.03,-0.60,0.38
1.06,0.98,10.98,2.51,34.68,-44.04,-0.07,-0.41,0.45
1.54,2.04,7.49,2.70,34.73,-43.61,0.09,-0.48,0.58
-0.67,-0.81,11.40,2.56,35.03,-43.45,0.06,-0.38,0.47
1.01,0.37,10.70,3.42,35.03,-43.53,-0.02,-0.07,0.67
0.62,0.59,9.18,3.74,35.22,-43.79,0.21,0.19,0.75
1.40,-0.47,10.39,4.93,34.90,-43.70,0.16,-0.03,0.97
2.14,-0.30,9.81,6.72,35.94,-43.79,0.21,-0.07,0.97
1.72,1.35,11.02,7.32,35.49,-43.31,0.16,0.15,0.88
1.54,0.75,9.81,8.78,35.44,-42.33,0.05,0.34,0.60
3.12,0.16,7.02,9.89,35.17,-42.65,0.16,-0.03,0.79
2.31,-0.84,10.25,10.96,35.33,-42.81,0.25,-0.48,0.95
2.05,-0.24,9.24,11.11,35.78,-42.33,0.20,-0.68,0.92
2.83,1.91,10.65,10.99,35.78,-42.66,0.21,-0.44,1.00
3.35,-1.59,10.21,11.75,35.06,-42.39,0.23,-0.05,1.07
0.37,0.67,10.99,12.91,35.37,-41.11,0.21,-0.27,1.10
1.73,0.71,11.59,13.59,35.38,-41.90,0.21,-0.45,0.90
1.84,-1.23,10.31,14.53,35.50,-41.79,0.27,-0.54,1.41
1.88,-0.87,10.67,15.05,35.12,-41.45,0.42,-0.37,1.86
-1.74,-0.92,13.52,16.56,34.83,-41.23,0.57,0.27,1.94
2.49,0.42,8.00,17.93,34.22,-40.92,0.11,0.61,0.66
2.47,-0.49,9.35,19.94,34.17,-39.56,-0.04,0.74,-0.02
2.41,0.31,10.06,21.16,33.82,-39.46,-0.06,0.88,-0.20
0.56,-0.37,9.63,23.00,33.75,-37.77,-0.03,1.40,0.04
2.84,0.57,8.08,25.39,33.67,-37.18,-0.03,1.24,0.14
4.68,0.03,8.09,26.53,33.82,-36.73,0.20,0.08,0.41
4.13,-0.57,9.18,27.40,33.53,-35.94,0.21,-0.39,0.62
4.00,-0.53,7.49,27.92,33.65,-36.54,0.16,-0.16,0.39
3.75,0.62,9.96,28.59,33.51,-34.89,0.01,0.10,0.12
4.59,0.79,9.02,28.98,33.54,-34.67,0.01,0.68,0.16
6.20,0.69,7.75,30.84,33.31,-33.29,0.38,0.99,0.89
5.51,-2.39,10.34,32.59,32.90,-32.48,0.89,0.38,1.52
5.18,-0.97,8.53,34.49,32.75,-30.71,0.80,0.06,1.30
4.28,0.34,10.41,34.95,31.72,-30.01,0.46,0.24,0.85
6.22,0.60,7.27,36.50,31.77,-29.28,0.25,0.52,0.43
5.71,0.27,7.75,37.18,31.77,-28.09,-0.03,0.56,0.10
6.06,0.25,7.09,38.10,31.41,-27.84,0.10,0.13,0.22
4.95,-0.55,8.69,38.38,31.00,-27.04,0.08,-0.03,0.19
6.12,-0.26,8.03,39.18,31.10,-26.76,0.01,0.52,0.08
6.02,0.32,7.47,40.32,30.90,-25.52,0.03,0.55,0.10
5.95,-0.64,7.54,40.92,31.80,-24.20,-0.00,0.33,0.05
6.38,-0.03,7.01,41.32,31.54,-23.19,-0.03,0.18,0.07
6.53,-0.01,7.54,41.70,31.10,-22.10,-0.00,0.43,0.04
7.14,-0.06,6.51,42.43,31.60,-20.83,-0.02,0.36,0.06
7.11,-0.22,6.76,42.69,31.47,-20.68,-0.04,0.14,0.07
6.80,-0.04,7.26,43.44,31.18,-20.08,-0.03,0.33,0.07
9.17,0.41,6.35,45.91,31.37,-14.75,0.02,1.87,0.03
8.54,-0.19,7.16,46.86,31.29,-11.46,-0.00,2.36,0.02
4.87,-0.34,2.91,48.44,31.07,-6.46,-0.48,3.56,-0.13
8.85,0.09,3.11,49.08,31.56,-2.92,-0.06,2.02,-0.01
9.37,-0.22,2.70,48.63,31.60,0.12,-0.01,1.45,0.04
11.16,-1.23,0.57,48.06,32.04,1.75,0.00,1.30,0.04
9.47,-0.21,1.88,48.04,31.76,4.97,-0.03,1.36,0.07
10.14,-0.22,1.84,48.00,31.45,6.81,-0.03,1.65,0.07
9.54,-0.13,0.90,48.32,31.73,10.26,-0.02,1.90,0.10
9.54,-0.21,-0.29,46.95,32.14,12.83,-0.01,1.88,0.11
8.77,0.05,-1.00,46.08,32.21,16.84,0.10,2.04,0.05
9.35,0.57,-1.69,44.18,32.10,21.13,0.62,2.84,0.00
9.21,0.06,-3.01,42.39,32.30,23.91,-0.05,2.11,-0.11
9.82,0.90,-4.31,40.28,33.13,26.57,-0.07,1.91,-0.14
8.33,0.10,-2.83,38.75,33.06,29.25,-0.08,2.18,-0.17
8.54,-0.88,-4.55,36.07,33.88,30.87,-0.08,2.13,-0.21
7.75,-0.19,-4.82,33.67,34.36,33.22,-0.06,2.10,-0.10
6.75,-0.05,-5.68,31.18,34.77,35.57,-0.53,2.76,0.11
6.30,-0.70,-6.64,27.05,35.93,37.97,-0.62,3.31,0.24
5.75,-0.19,-8.26,23.52,36.36,39.67,0.30,3.12,0.23
3.91,0.43,-7.82,19.10,36.42,42.05,0.34,3.26,0.13
2.70,-1.70,-6.30,13.40,36.29,43.85,0.31,3.94,0.54
1.89,-0.18,-10.04,8.65,35.84,46.05,0.25,3.89,0.61
3.04,1.64,-11.12,4.34,35.47,46.10,0.67,2.28,0.15
1.97,0.64,-10.62,1.80,34.48,46.70,0.10,-0.31,-0.49
1.03,-0.25,-9.20,1.49,34.83,46.33,0.08,-0.36,-0.27
2.18,-0.13,-9.39,1.37,34.29,46.46,0.04,-0.32,-0.14
1.11,0.29,-8.48,0.88,34.24,46.73,0.23,0.28,0.05
0.73,-1.09,-8.93,-0.03,33.67,47.56,0.02,1.52,0.31
2.53,-0.31,-9.95,-3.55,33.78,46.89,0.07,2.19,0.79
0.53,1.68,-10.93,-6.62,34.43,46.04,-0.13,1.40,0.63
-0.86,-0.34,-11.43,-7.94,34.41,45.18,0.17,-0.68,-0.11
0.94,-0.05,-7.94,-7.61,34.43,45.29,-0.12,-0.95,-0.37
-0.12,-0.27,-8.26,-11.21,34.33,45.75,0.03,0.18,0.02
1.11,0.57,-12.79,-8.46,33.97,45.32,0.14,-0.40,0.15
0.28,0.35,-9.71,-8.30,34.55,45.56,-0.02,-0.34,0.10
0.47,0.39,-9.32,-8.67,34.07,45.98,-0.00,-0.37,0.07
0.60,0.30,-9.21,-8.26,34.30,46.45,-0.00,-0.41,0.05
0.50,0.34,-9.07,-8.11,33.79,46.23,-0.03,-0.41,0.06
0.37,0.20,-9.02,-8.16,34.29,46.19,-0.03,-0.41,0.06
0.29,0.13,-9.16,-8.49,33.97,45.85,-0.03,-0.41,0.06
0.09,0.27,-9.67,-8.43,33.79,46.95,-0.02,-0.40,0.06
0.13,0.29,-9.63,-7.99,33.46,46.21,-0.01,-0.40,0.06
0.06,0.50,-9.62,-7.89,33.82,46.33,-0.00,-0.40,0.06
0.17,0.50,-9.53,-8.23,33.51,46.71,-0.01,-0.40,0.06
0.24,0.44,-9.59,-8.61,33.79,46.58,-0.02,-0.40,0.06
0.06,0.06,-9.17,-8.51,34.39,45.81,-0.16,-0.28,0.06
0.12,0.45,-9.96,-8.77,34.96,45.97,-0.32,0.24,0.08
-0.27,0.14,-9.54,-10.19,35.11,46.46,-0.14,-0.23,0.08
0.02,0.27,-9.48,-10.20,35.11,45.86,0.20,-0.72,0.05
-0.21,0.26,-9.60,-9.18,34.84,45.78,-0.14,-0.09,0.06
-0.04,0.23,-9.43,-9.50,34.92,46.43,-0.21,0.02,0.07
-0.13,0.06,-9.58,-10.71,35.17,45.37,-0.40,0.42,0.08
-0.53,0.11,-9.68,-11.65,36.48,45.34,-0.35,0.40,0.07
-0.47,0.32,-9.55,-11.52,35.84,44.68,-0.04,-0.32,0.03
-0.58,0.32,-9.61,-11.77,35.21,44.46,-0.04,-0.17,0.07
-0.62,0.04,-9.66,-11.63,35.57,43.93,-0.06,-0.06,0.05
-0.83,-0.10,-9.99,-12.47,35.68,43.41,-0.08,0.49,0.08
-1.01,-0.27,-9.33,-14.47,35.87,43.07,-0.03,0.63,0.08
-1.46,-0.17,-9.14,-14.79,35.94,43.15,-0.00,0.10,0.10
-1.49,0.10,-9.48,-15.51,35.65,43.09,-0.02,-0.09,0.06
-1.53,0.11,-9.76,-15.99,36.16,42.58,-0.02,0.09,0.06
-1.76,0.12,-9.91,-16.63,35.71,42.37,-0.01,0.82,0.06
-2.10,-0.06,-7.36,-18.68,35.94,41.36,0.01,1.01,0.07
-2.60,-0.25,-8.87,-20.14,36.69,40.70,-0.00,0.69,0.05
-2.87,-0.23,-9.09,-20.99,36.41,40.78,-0.02,0.66,-0.01
-3.09,0.09,-9.32,-23.14,36.61,39.74,0.01,0.81,0.07
-3.38,0.34,-9.30,-24.31,36.70,38.50,0.03,1.13,0.15
-3.93,0.27,-8.88,-26.72,36.60,37.01,-0.04,1.53,0.07
-4.39,0.01,-8.97,-28.59,36.48,36.12,-0.02,1.89,0.06
-5.05,-0.28,-8.18,-32.05,36.57,33.19,-0.01,2.50,0.06
-5.81,-0.17,-7.38,-34.62,36.80,30.93,0.01,2.61,0.06
-6.34,0.09,-6.97,-37.36,36.82,27.71,0.01,2.34,0.06
-6.85,0.34,-6.55,-38.92,37.62,24.88,0.05,2.18,0.09
-7.88,-0.11,-6.49,-40.53,37.99,21.69,0.32,1.70,0.33
-8.00,0.11,-5.44,-41.60,37.74,20.07,0.21,1.60,0.18
-8.13,-0.11,-5.11,-42.81,38.09,16.72,0.01,1.60,0.07
-8.50,0.11,-4.65,-43.67,38.34,15.13,-0.02,1.61,0.08
-8.84,-0.05,-4.12,-44.52,38.57,12.53,0.03,1.60,0.04
-9.74,0.47,-3.48,-45.59,38.44,9.00,0.35,1.73,0.23
-9.01,0.62,-2.86,-45.78,38.69,6.58,1.21,2.59,0.39
-8.43,3.63,1.68,-46.57,39.10,3.98,1.45,2.13,1.02
-10.23,-0.60,-1.30,-45.60,39.70,1.78,0.71,1.54,0.54
-10.30,-0.68,-0.47,-45.44,39.58,0.19,0.00,0.65,0.05
-9.58,0.27,-0.93,-45.34,39.17,-1.61,-0.03,0.94,0.05
-9.62,-0.14,-0.22,-45.60,40.08,-2.98,-0.02,1.00,0.06
-10.28,-0.39,0.09,-45.57,39.40,-4.40,-0.02,0.88,0.05
-9.69,-0.22,0.46,-45.50,39.92,-6.55,-0.02,0.87,0.03
-9.71,0.13,1.14,-44.88,39.89,-7.78,-0.02,0.51,0.04
-9.77,0.29,1.06,-44.43,39.64,-9.22,-0.02,0.22,0.05
-9.74,-0.09,1.23,-44.62,39.54,-10.00,-0.04,0.12,0.05
-9.80,-0.09,1.23,-44.11,39.94,-10.82,-0.02,0.16,0.06
-9.65,-0.19,1.46,-44.31,39.86,-11.22,-0.02,0.01,0.07
-10.21,-0.02,1.17,-44.21,40.05,-11.87,-0.02,0.16,0.06
-9.86,-0.14,1.65,-43.67,40.27,-12.50,-0.02,0.49,0.04
-9.73,-0.04,1.79,-42.82,40.30,-14.21,-0.03,0.65,0.05
-10.42,-0.14,2.63,-42.65,39.67,-14.69,-0.02,0.77,0.05
-9.51,-0.09,2.57,-41.95,39.86,-16.19,-0.03,0.93,0.04
-9.58,-0.06,2.70,-41.36,40.15,-18.81,-0.02,1.19,0.04
-9.11,0.06,3.48,-40.27,39.55,-21.63,-0.03,1.34,0.04
-8.61,0.09,5.17,-37.02,39.45,-26.00,-0.02,1.09,0.06
-8.55,0.19,5.25,-35.37,39.67,-28.41,-0.03,0.95,0.08
-8.64,0.24,5.48,-34.22,39.90,-28.73,-0.04,1.17,0.07
-7.97,0.28,6.07,-33.32,39.83,-29.48,-0.05,1.38,0.08
-8.19,0.11,6.46,-30.77,39.68,-31.79,-0.09,1.16,0.08
-7.23,0.37,6.73,-29.57,39.39,-33.16,-0.10,1.01,0.09
-6.54,0.22,6.70,-28.79,39.20,-34.29,-0.10,1.08,0.12
-8.87,0.06,7.66,-25.69,38.94,-35.88,0.02,1.56,-0.02
-7.27,-0.01,8.26,-23.34,39.27,-36.96,0.11,2.47,-0.25
-6.03,-0.60,8.83,-19.48,39.20,-39.81,0.05,2.73,-0.24
-6.25,-0.87,8.48,-16.44,39.23,-40.18,0.13,3.75,-0.11
-4.00,-0.39,10.77,-12.47,39.01,-42.11,0.07,1.97,-0.24
-3.84,0.21,9.50,-10.01,38.80,-43.23,0.02,1.40,0.02
-3.54,0.28,9.97,-7.72,39.40,-42.77,-0.14,0.97,0.38
-1.23,0.67,10.21,-5.61,38.72,-43.47,-0.06,0.60,0.22
-2.37,0.64,9.88,-4.90,38.98,-44.10,-0.02,0.47,0.05
-2.11,0.11,9.80,-3.39,39.01,-43.76,0.02,0.34,0.07
-1.41,0.07,10.47,-2.28,38.79,-44.24,-0.10,-0.13,0.23
-1.85,-0.07,9.93,-2.24,38.66,-43.34,-0.02,-0.27,-0.01
-1.68,-0.01,9.22,-1.77,38.45,-44.21,0.07,0.28,-0.47
-2.29,0.06,10.25,-1.99,38.80,-43.19,0.08,0.56,-0.79
-0.68,0.13,11.16,-0.88,38.38,-44.10,0.03,0.05,0.06
-1.72,0.27,10.16,-0.56,38.97,-44.11,-0.00,-0.13,0.06
-1.76,0.01,9.61,0.69,38.59,-44.05,-0.06,-0.20,0.54
-1.18,-0.39,9.57,1.08,38.06,-43.69,-0.13,-0.38,0.74
-0.01,0.23,10.34,1.59,38.32,-43.88,-0.05,-0.11,0.32
-1.39,0.62,10.24,1.81,38.67,-43.57,-0.00,-0.11,0.05
-1.41,-0.01,10.10,2.25,38.82,-43.80,0.02,-0.03,0.06
-1.16,0.04,9.51,2.73,38.67,-43.50,0.00,0.14,0.06
-0.98,-0.10,9.10,3.32,38.72,-43.04,-0.02,0.30,0.05
-0.88,-0.33,8.84,4.79,38.94,-43.03,-0.02,1.41,0.03
-0.81,1.03,12.99,6.99,38.91,-42.75,-0.28,-0.77,-0.06
0.81,0.35,8.86,6.31,38.60,-42.75,-0.06,-0.40,0.06
0.21,0.69,10.47,6.02,38.80,-42.96,0.01,-0.25,-0.07
-0.13,-0.06,9.96,6.61,38.50,-42.50,-0.01,-0.18,-0.14
0.04,-0.17,9.55,6.15,38.21,-42.37,-0.01,-0.16,-0.04
-0.97,-0.83,10.25,6.96,38.31,-42.08,0.00,-0.02,-0.10
0.32,-0.03,9.98,8.99,37.94,-42.91,-0.10,0.60,0.06
0.24,-0.03,9.94,9.13,37.74,-42.98,-0.07,-0.55,0.04
1.19,-0.74,8.62,9.30,38.41,-42.22,0.02,-0.31,0.02
1.18,-0.20,9.60,9.28,38.07,-42.88,0.01,-0.41,0.03
0.39,0.09,9.93,9.02,38.41,-43.07,-0.01,-0.44,0.06
0.65,0.06,10.20,8.86,38.41,-42.58,-0.03,-0.37,-0.14
-0.09,-0.18,10.04,8.40,37.85,-43.35,-0.00,-0.46,-0.12
0.55,-0.21,10.11,8.20,38.28,-43.10,-0.05,-0.45,-0.10
0.75,0.22,10.12,8.62,38.37,-42.90,-0.07,-0.30,-0.34
0.39,0.28,9.96,8.08,38.57,-41.74,-0.03,-0.47,-0.47
-0.93,0.14,10.40,7.94,38.59,-41.76,-0.04,-0.50,-0.17
0.62,-0.13,9.93,7.26,38.29,-42.59,-0.01,-0.49,-0.06
1.26,0.37,9.93,7.22,38.04,-42.93,-0.03,-0.12,0.09
0.05,-0.47,9.55,7.23,37.99,-43.31,0.05,-0.32,-0.29
-0.32,-0.60,9.21,7.63,38.75,-42.56,-0.05,-0.40,-0.16
0.71,0.12,10.69,7.37,37.69,-43.17,-0.04,-0.23,0.19
0.39,0.52,9.28,8.11,37.77,-43.72,0.02,-0.38,0.18
0.57,1.08,9.98,7.97,37.52,-43.23,0.02,-0.65,0.40
0.27,-0.06,10.27,8.01,37.53,-43.47,0.08,-0.43,0.43
0.51,0.41,9.51,8.46,37.46,-43.32,-0.01,-0.40,0.27
0.72,0.48,10.57,8.55,37.12,-43.03,-0.00,-0.40,0.52
-0.11,1.01,10.47,8.94,36.73,-42.94,0.03,-0.41,0.63
0.53,-0.16,9.99,9.66,36.50,-42.49,0.06,-0.39,0.32
0.57,-0.47,10.88,9.70,36.70,-43.07,0.04,-0.40,0.22
0.42,1.81,9.44,9.73,36.58,-43.92,-0.04,-0.43,0.15
0.72,0.14,10.14,9.38,35.78,-43.32,0.01,-0.42,0.31
1.05,-0.20,10.21,9.81,35.84,-42.49,0.03,-0.42,0.33
0.45,-0.27,11.30,10.20,35.82,-42.75,0.03,-0.44,0.40
0.27,0.09,10.40,10.45,36.12,-42.60,0.04,-0.39,0.47
0.11,0.03,9.41,10.46,35.69,-43.20,0.02,-0.38,0.35
-0.12,0.42,10.20,11.40,35.40,-42.71,0.31,-0.38,0.34
0.38,-0.47,10.58,11.05,35.43,-42.58,-0.06,-0.27,0.09
0.55,-0.24,9.53,11.40,35.06,-42.77,-0.01,-0.41,0.18
0.11,-0.24,9.59,11.09,35.09,-42.90,0.01,-0.37,0.43
-0.22,0.27,9.86,11.58,35.33,-42.85,0.00,-0.45,0.28
0.93,-0.37,10.57,11.84,34.99,-42.49,-0.03,-0.30,0.04
0.39,-0.01,9.68,11.97,34.71,-42.60,0.01,-0.43,0.29
0.92,-0.41,9.50,11.85,34.77,-43.38,0.03,-0.50,0.49
1.41,-0.76,10.57,12.12,34.73,-43.48,0.02,-0.44,0.39
0.59,-0.62,10.01,12.42,34.58,-43.42,0.07,-0.29,0.19
0.10,-0.01,10.42,12.85,34.87,-42.72,0.02,-0.48,0.32
-2.22,-0.93,10.68,12.61,34.42,-42.94,0.04,-0.31,0.36
0.29,-1.39,11.25,12.74,34.16,-43.20,0.03,-0.35,0.10
1.72,-0.16,10.06,12.63,34.42,-43.20,-0.05,-0.37,0.05
0.03,0.29,11.36,12.88,34.03,-42.69,-0.04,-0.82,0.32
0.14,0.07,10.09,12.96,34.05,-43.22,0.04,-0.25,0.14
1.00,-0.22,8.26,13.07,33.97,-43.19,-0.06,-0.50,0.04
0.11,0.13,9.31,12.76,34.26,-43.25,-0.09,-0.51,-0.42
0.01,0.52,7.66,12.39,34.19,-43.06,-0.05,-0.26,-0.07
0.32,0.23,7.82,12.32,33.86,-42.66,-0.04,-0.44,0.39
-0.19,0.17,10.61,11.68,34.24,-42.75,-0.04,-0.49,0.62
0.48,0.73,8.84,12.25,33.91,-42.82,-0.01,-0.40,0.35
-1.56,-0.21,10.27,12.64,33.43,-42.56,0.04,-0.30,0.14
0.18,0.15,9.42,13.01,33.60,-42.79,-0.01,-0.33,-0.16
0.01,0.01,9.66,12.28,33.67,-42.65,0.04,-0.38,0.38
0.11,0.06,10.78,12.73,33.92,-42.68,0.01,-0.31,0.24
-0.11,0.00,9.81,13.07,33.70,-42.62,0.00,-0.31,0.13
0.06,-0.08,10.47,13.26,33.60,-42.63,-0.03,-0.44,0.06
0.36,0.10,10.14,13.02,33.22,-43.06,-0.01,-0.38,0.05
0.21,-1.81,10.33,12.74,33.09,-42.98,-0.01,-0.36,0.06
0.24,-0.09,9.92,13.55,32.90,-43.38,0.00,-0.31,0.08
0.45,-0.01,10.07,13.67,33.95,-42.40,0.02,-0.31,0.07
0.45,-0.70,9.84,14.62,33.44,-41.76,0.04,0.14,0.22
1.17,-0.06,10.17,15.74,33.21,-41.87,0.00,0.14,0.10
0.88,-0.22,10.01,16.76,33.13,-41.63,0.00,0.19,0.08
1.10,-0.14,9.89,16.87,33.44,-41.60,0.00,0.16,0.06
1.21,-0.04,10.02,17.58,33.67,-41.36,0.00,0.13,0.05
1.15,-0.04,10.14,17.98,33.28,-40.76,-0.01,0.07,0.06
1.46,-0.25,9.84,18.77,33.06,-40.62,-0.00,0.34,0.06
1.47,-0.07,9.78,19.53,33.44,-40.51,-0.05,0.48,0.09
2.30,-0.06,9.59,20.87,33.08,-40.06,0.00,0.34,0.11
2.17,-0.02,9.81,22.07,32.91,-40.02,-0.02,0.25,0.06
1.73,-0.22,10.06,23.11,32.74,-38.73,0.01,0.38,0.10
2.38,-0.58,9.36,23.94,33.02,-38.61,0.02,0.37,0.18
2.66,-0.11,9.65,25.14,33.03,-37.68,-0.01,0.42,0.10
2.92,-0.22,9.50,25.62,32.86,-37.26,-0.04,0.51,0.06
3.11,0.09,9.40,26.98,32.10,-36.67,-0.03,0.66,0.06
3.56,0.01,9.37,28.16,32.21,-35.79,-0.03,0.81,0.06
3.65,0.04,9.19,29.71,31.91,-34.68,-0.06,0.94,-0.02
3.75,0.70,9.28,31.04,31.89,-33.84,-0.01,1.01,0.02
4.82,-0.38,8.97,32.37,31.75,-32.40,-0.14,1.12,-0.18
5.74,-0.24,7.32,34.43,32.21,-31.15,-0.12,1.12,-0.08
5.20,-0.32,8.04,35.65,32.40,-30.11,-0.02,0.99,0.06
5.63,-0.11,7.90,36.63,32.33,-28.75,-0.03,0.92,0.06
5.82,0.09,7.69,37.71,32.18,-27.62,-0.02,0.92,0.06
6.01,0.09,8.04,38.98,32.26,-26.12,-0.02,1.03,0.05
6.33,-0.04,7.18,40.22,32.05,-24.88,-0.03,1.20,0.06
6.81,-0.11,7.02,41.22,32.48,-22.68,-0.02,1.30,0.06
7.36,0.06,6.81,42.85,32.05,-19.70,-0.01,1.41,0.05
7.70,-0.06,6.47,44.05,32.11,-17.41,-0.02,1.51,0.05
7.95,-0.24,5.05,44.71,32.26,-15.23,-0.02,1.48,0.05
7.44,-0.28,5.02,45.98,32.30,-12.51,-0.03,1.23,0.06
8.09,-0.10,5.13,46.48,32.02,-10.70,-0.01,1.52,0.05
8.72,0.04,4.42,47.35,32.01,-7.41,-0.03,1.61,0.06
8.96,-0.06,3.24,47.95,32.26,-5.42,-0.03,1.74,0.06
8.71,-0.18,3.34,47.53,32.75,-2.50,-0.03,1.53,0.06
9.17,-0.14,2.95,47.78,32.04,-0.39,-0.02,1.75,0.06
9.68,-0.16,1.72,48.07,32.67,2.66,-0.02,1.83,0.05
9.58,-0.09,1.00,47.75,32.53,5.63,-0.02,1.67,0.05
9.69,-0.04,0.12,47.21,32.87,8.16,-0.02,1.45,0.06
9.61,-0.04,0.12,46.89,32.75,9.57,-0.02,1.13,0.06
9.36,-0.19,0.63,46.38,32.74,11.90,-0.02,1.18,0.07
9.12,-0.27,-0.07,45.40,33.32,13.65,-0.03,1.81,0.09
9.83,-0.24,-2.40,44.84,33.46,15.96,-0.03,1.63,0.05
9.80,0.24,-0.80,44.34,33.62,18.91,-0.05,1.93,0.03
9.00,-0.98,-3.55,42.20,34.01,21.84,-0.06,2.31,-0.17
10.11,-0.39,-6.16,40.47,34.48,24.77,-0.07,1.40,-0.14
9.25,-0.47,-5.65,39.55,34.74,25.34,-0.02,-0.35,0.06
8.92,-0.42,-3.00,40.35,34.33,23.36,0.01,-1.34,0.16
8.56,-0.24,-1.38,40.53,34.01,23.17,-0.01,-0.70,0.10
8.90,-0.02,-1.72,40.75,33.95,23.31,-0.04,0.42,-0.02
8.92,-0.17,-3.58,39.84,34.60,25.14,-0.05,0.84,-0.07
8.51,-0.34,-5.26,36.79,34.74,28.90,-0.06,0.66,-0.07
8.79,-0.37,-4.64,36.13,35.11,30.47,-0.03,0.25,-0.02
8.52,-0.42,-4.37,35.74,35.47,29.66,-0.06,0.34,-0.03
8.96,-0.70,-3.79,35.11,35.68,30.82,-0.29,0.72,0.08
6.64,-0.35,-4.43,33.27,35.74,31.48,-0.56,1.36,0.13
7.54,-0.23,-4.35,31.54,36.48,33.43,-0.71,2.09,0.11
7.08,-0.41,-8.95,28.50,37.17,35.69,-0.25,2.47,0.36
6.18,0.37,-7.61,26.56,37.34,35.72,-0.16,0.97,0.24
6.11,-0.50,-6.63,24.96,37.40,38.03,0.07,0.76,0.05
5.94,-0.70,-6.80,23.62,37.11,38.37,0.09,1.00,0.07
5.03,-1.00,-7.34,21.47,37.09,39.80,-0.02,1.48,0.27
7.26,-0.32,-8.21,20.17,37.04,41.38,0.05,1.44,0.32
5.05,-0.17,-8.35,17.89,36.54,41.87,0.13,1.10,0.11
4.82,-0.11,-8.24,16.40,36.89,41.73,0.11,1.06,0.10
4.13,-0.06,-8.10,15.05,36.66,42.41,0.11,1.25,0.11
3.54,-0.34,-8.44,13.18,36.66,43.19,0.19,1.86,0.15
3.91,-0.17,-10.11,9.34,36.52,44.55,0.45,1.89,0.26
2.58,-0.02,-10.13,6.81,36.06,45.26,0.38,1.49,0.23
2.27,0.87,-9.52,4.52,35.85,44.83,0.18,0.38,-0.03
3.14,0.37,-9.83,3.89,35.52,45.95,0.11,-0.09,-0.29
2.05,0.22,-9.26,3.33,35.49,45.91,0.13,-0.34,-0.47
1.94,-0.06,-9.04,3.03,34.58,45.95,0.14,0.16,0.12
1.87,-0.37,-9.20,2.22,35.15,46.19,0.23,0.67,0.25
0.96,0.11,-10.51,0.13,34.98,45.56,0.03,0.76,0.13
1.00,0.39,-9.53,-1.23,35.02,45.66,-0.01,0.68,0.09
0.81,0.26,-9.48,-3.01,34.76,45.16,-0.00,0.51,0.10
0.59,0.50,-9.53,-3.81,35.21,45.57,0.02,0.21,0.09
0.22,0.62,-9.53,-4.41,35.09,45.44,0.01,0.12,0.09
1.69,0.15,-9.52,-4.82,34.92,45.45,0.05,0.15,0.38
0.08,0.37,-7.85,-4.94,35.38,46.00,-0.04,-0.38,0.28
0.45,0.19,-9.13,-5.17,35.52,45.41,-0.02,-0.42,0.05
0.17,0.14,-9.58,-4.53,35.15,45.24,-0.00,-0.41,0.06
0.06,0.42,-9.48,-5.01,34.80,45.21,-0.01,-0.40,0.15
0.27,0.46,-9.47,-4.84,34.49,45.81,-0.02,-0.40,0.14
0.17,0.39,-9.38,-5.32,34.99,46.30,-0.03,-0.40,0.06
0.15,0.37,-9.62,-5.00,35.05,45.44,-0.03,-0.40,0.06
0.13,0.14,-9.48,-4.68,34.68,45.98,-0.03,-0.40,0.06
-0.35,0.28,-9.93,-5.06,34.73,45.24,-0.02,-0.48,0.41
1.45,1.14,-4.37,-5.09,35.52,44.96,-0.18,-0.39,0.02
-0.53,-0.09,-9.27,-5.00,35.36,46.14,0.03,-0.42,-0.54
2.34,-2.40,-9.43,-5.57,35.21,45.53,-0.01,-0.33,-0.70
0.83,-2.67,-7.69,-6.42,35.05,45.50,0.03,-0.37,-0.23
-0.07,0.20,-9.43,-6.64,35.02,44.78,-0.01,-0.40,0.06
0.17,0.30,-9.38,-6.61,35.31,45.16,-0.04,-0.38,0.06
0.26,0.35,-9.53,-6.52,34.87,45.50,-0.01,-0.40,0.05
-0.22,0.09,-9.82,-6.42,35.03,45.54,-0.02,-0.40,0.07
0.24,0.34,-9.53,-6.52,35.05,45.82,-0.02,-0.42,0.06
-0.06,-1.63,-9.55,-6.77,35.27,45.51,-0.02,-0.40,0.06
0.01,0.18,-10.04,-6.26,35.44,44.80,-0.12,-0.29,0.06
0.14,0.52,-9.30,-7.19,35.17,44.86,-0.13,-0.13,0.07
-0.50,-0.05,-9.49,-9.63,36.76,43.99,-0.55,0.75,0.09
-0.32,-0.26,-8.84,-10.26,36.69,44.55,0.10,-0.52,0.04
-0.47,-0.29,-9.58,-9.69,35.90,44.02,-0.06,-0.20,0.01
-0.56,0.24,-9.67,-9.84,36.32,43.77,-0.03,-0.05,-0.03
-0.71,0.12,-9.60,-10.17,36.79,43.48,-0.03,0.10,0.07
-0.97,-0.07,-9.40,-11.87,36.79,43.51,-0.06,0.46,0.06
-1.48,-0.16,-9.17,-13.20,37.30,43.31,-0.03,0.20,0.05
-1.29,-0.13,-9.44,-13.61,37.08,42.59,-0.02,-0.02,0.05
-1.38,-0.04,-9.75,-14.92,36.93,43.45,-0.02,0.09,0.06
-1.69,0.04,-9.83,-15.13,36.66,42.69,-0.01,0.65,0.07
-1.89,0.00,-9.43,-16.85,37.42,42.50,0.01,0.84,0.09
-2.38,-0.24,-9.20,-18.14,37.52,41.68,0.00,0.90,0.08
-2.54,-0.24,-9.53,-20.04,37.45,40.59,-0.01,1.33,-0.01
-3.14,-0.17,-9.06,-22.13,37.40,39.42,0.02,1.55,0.05
-3.53,0.19,-8.62,-24.38,37.93,38.10,0.03,1.52,0.11
-4.28,0.24,-8.67,-26.64,37.97,36.85,0.01,1.40,0.05
-4.71,0.11,-8.20,-28.66,37.65,35.53,-0.02,1.31,0.07
-5.06,-0.10,-8.13,-29.93,37.80,34.32,-0.02,1.32,0.07
-5.61,-0.27,-7.76,-31.98,38.09,33.21,-0.01,1.30,0.06
-5.90,-0.12,-7.34,-33.76,38.47,31.44,-0.02,1.09,0.06
-6.20,0.14,-7.42,-34.42,37.90,28.98,-0.02,0.82,0.06
-6.53,0.05,-7.44,-35.12,37.99,27.33,-0.01,1.06,0.06
-6.78,0.00,-6.80,-37.09,38.37,25.67,-0.01,1.35,0.06
-7.09,-0.11,-6.28,-38.51,38.31,24.85,-0.01,1.38,0.06
-7.54,-0.11,-6.02,-39.59,38.61,23.40,0.00,1.30,0.04
-7.73,-1.80,-5.53,-40.69,38.73,20.67,-0.00,1.59,0.06
-8.14,0.23,-5.41,-41.57,38.83,19.10,-0.00,1.81,0.04
-8.39,0.09,-4.35,-43.03,38.86,15.32,-0.00,1.99,0.06
-8.64,0.17,-3.88,-44.30,39.13,13.07,0.00,1.74,0.08
-9.24,-0.04,-3.73,-44.78,39.07,10.22,0.43,2.09,0.17
-8.78,-0.14,-2.30,-44.93,39.40,7.06,0.45,2.07,0.17
-10.73,-0.60,-0.98,-45.76,39.78,4.84,-0.08,1.16,0.40
-9.43,-0.34,-1.79,-45.73,40.37,2.81,-0.03,0.94,0.27
-9.74,0.13,-1.36,-45.76,40.25,1.71,-0.03,0.81,0.07
-9.12,0.03,-0.84,-45.19,40.08,-0.29,-0.03,0.36,0.05
-9.88,-0.26,-0.73,-45.18,40.15,-1.53,-0.01,0.34,0.07
-9.62,-0.06,-0.57,-44.86,40.28,-1.72,-0.02,0.22,0.05
-9.92,-0.14,-0.47,-44.62,40.47,-1.91,-0.02,0.15,0.06
-9.54,-0.13,0.01,-44.21,40.38,-3.08,-0.02,-0.10,0.05
-9.83,-0.17,-0.44,-44.56,40.16,-3.70,-0.02,-0.33,0.06
-9.99,-0.17,-0.60,-44.58,40.38,-3.19,-0.02,-0.08,0.04
-9.78,-0.06,-0.24,-44.87,40.68,-4.33,-0.02,0.24,0.05
-9.97,-0.01,-0.08,-44.93,40.57,-4.50,-0.02,0.22,0.05
-9.66,0.00,0.27,-44.36,40.44,-6.01,-0.02,0.18,0.06
-10.01,-0.02,0.20,-44.93,40.13,-6.20,-0.02,0.11,0.05
-9.88,-0.11,0.26,-44.53,40.40,-6.74,-0.02,0.35,0.06
-10.01,-0.15,0.88,-44.46,40.18,-7.99,-0.01,0.68,0.05
-9.23,-0.17,-0.38,-44.07,40.47,-9.38,0.15,1.08,0.03
-7.98,-0.79,1.59,-43.73,40.15,-10.67,0.58,1.69,-0.05
-9.16,2.35,1.53,-43.34,40.28,-13.18,0.45,0.95,-0.02
-8.56,-0.65,2.11,-40.62,40.43,-17.07,0.17,1.14,-0.00
-7.65,0.04,3.24,-39.32,40.84,-18.81,0.12,1.00,0.01
-8.85,-0.19,4.28,-39.54,40.28,-20.64,0.03,0.80,0.02
-8.63,0.14,3.72,-38.64,40.78,-21.97,0.08,0.83,0.00
-8.28,-0.14,4.35,-37.87,40.49,-23.31,0.15,0.81,-0.04
-9.60,-0.05,4.52,-37.66,40.89,-23.55,0.20,0.68,-0.05
-7.37,-0.34,5.43,-36.29,40.46,-24.73,0.16,0.65,-0.06
-8.33,-0.06,5.01,-35.63,40.59,-25.10,0.33,1.01,-0.20
-7.93,-0.05,5.18,-34.48,40.87,-26.41,0.22,0.82,-0.10
-8.24,-0.04,6.59,-34.13,40.57,-28.21,0.02,0.60,0.03
-7.93,-0.24,6.02,-33.41,40.73,-29.01,-0.02,0.45,0.05
-7.61,-0.11,6.36,-32.36,40.65,-29.38,-0.01,0.33,0.06
-7.57,-0.22,6.94,-32.36,40.97,-30.37,-0.00,0.28,0.02
-8.74,0.29,10.37,-31.06,40.63,-30.91,0.21,0.71,-0.25
-7.76,-0.01,7.57,-29.52,40.16,-32.20,0.43,1.82,-0.72
-4.84,-1.17,5.10,-27.93,39.97,-33.94,0.22,1.63,-0.56
-7.09,-0.27,8.49,-25.58,39.51,-35.72,-0.06,2.09,0.05
-4.36,-0.33,7.89,-23.34,39.68,-36.35,-0.23,1.33,0.42
-5.25,0.66,8.59,-21.16,39.87,-37.69,-0.14,1.07,0.27
-4.98,0.03,9.16,-19.79,39.65,-37.94,-0.01,0.87,0.05
-4.37,0.01,9.17,-18.33,39.64,-38.78,-0.00,0.70,0.04
-4.82,0.00,9.58,-17.79,39.64,-39.07,0.04,0.77,-0.14
-5.23,0.32,8.92,-15.29,39.40,-40.03,0.02,1.82,-0.11
-3.85,0.08,11.21,-12.86,39.81,-40.51,0.19,3.01,-0.22
-1.82,0.34,10.19,-9.68,40.54,-41.19,0.31,0.81,0.06
-2.33,0.88,9.20,-8.36,41.30,-40.95,0.94,0.75,0.32
-1.47,-0.75,9.53,-6.71,42.08,-40.73,0.66,0.02,0.52
-1.05,-0.90,9.52,-5.95,42.58,-39.20,0.39,0.06,0.18
-0.59,-1.79,8.35,-4.88,43.66,-39.64,0.31,0.63,-0.38
-1.46,-0.35,10.72,-4.63,43.88,-39.42,-0.13,0.05,-0.36
-2.53,-0.50,10.26,-4.71,43.36,-40.09,-0.49,-0.25,0.13
-1.46,-0.97,9.40,-4.60,43.17,-40.32,-0.36,-0.69,0.32
-0.65,-0.37,9.21,-4.78,42.41,-41.30,-0.28,-0.49,0.13
-0.60,-0.59,7.94,-4.71,40.95,-42.02,-1.04,-0.08,-0.51
4.82,0.27,1.91,-2.89,38.60,-42.36,0.21,0.54,-0.09
-1.12,-1.21,8.61,-2.38,39.27,-42.55,0.44,0.37,0.16
0.06,1.20,12.71,-1.55,39.43,-42.20,-0.11,-0.04,0.44
-0.59,0.36,10.14,-1.13,39.24,-42.36,-0.00,-0.29,0.39
-0.75,0.56,9.98,0.10,39.13,-42.15,0.14,-0.24,0.37
-0.11,0.11,9.91,0.63,39.33,-42.58,0.07,-0.26,0.22
-0.27,-0.10,9.96,0.13,39.68,-42.08,0.20,-0.17,-0.08
-0.55,-0.05,9.86,0.92,40.05,-41.57,0.14,-0.20,-0.04
-0.75,-0.55,10.22,1.13,40.50,-41.14,0.11,-0.23,0.06
-0.52,-0.42,9.85,1.53,40.53,-40.40,0.08,-0.27,0.07
-0.28,-0.14,9.95,1.48,40.73,-41.07,0.03,-0.27,0.08
-0.18,-0.28,10.56,1.55,40.62,-40.19,-0.06,-0.30,0.04
-0.24,-0.24,10.03,1.52,40.78,-40.37,-0.03,-0.37,0.07
-0.23,-0.32,10.11,1.70,40.28,-41.71,-0.02,-0.36,0.04
-0.10,-0.10,10.35,2.16,40.41,-41.23,-0.08,-0.28,0.01
-0.72,-0.32,10.03,2.09,39.42,-41.35,-0.16,-0.13,-0.00
0.23,0.14,9.89,3.73,39.02,-41.84,-0.00,-0.41,0.06
0.09,0.04,10.08,3.35,38.85,-42.15,-0.02,-0.44,0.07
0.27,0.09,10.05,3.73,38.86,-41.92,-0.03,-0.42,0.07
0.18,0.00,10.03,3.26,38.75,-41.92,-0.02,-0.40,0.09
0.24,-0.09,10.20,3.55,38.59,-41.67,-0.02,-0.41,0.06
0.21,-0.05,9.88,3.29,38.66,-42.36,-0.01,-0.38,0.14
0.45,-0.03,10.06,4.00,38.31,-41.95,-0.01,-0.37,0.20
0.14,-0.15,10.13,3.62,38.64,-41.95,-0.00,-0.37,0.29
0.04,0.08,10.00,4.43,38.28,-41.93,0.01,-0.41,0.25
-0.11,-0.11,9.88,4.36,38.47,-43.01,-0.02,-0.37,0.14
0.36,0.25,9.88,4.88,37.87,-42.94,-0.02,-0.42,0.08
0.03,-0.02,10.14,4.55,37.99,-41.93,-0.04,-0.38,0.03
0.34,0.17,9.97,4.65,38.61,-42.30,-0.02,-0.41,0.08
0.28,-0.15,10.20,4.50,38.72,-41.84,-0.01,-0.42,0.11
0.45,0.00,9.90,5.19,38.13,-42.24,-0.01,-0.40,0.09
0.42,-0.04,10.14,4.65,38.57,-42.71,-0.02,-0.40,0.10
0.19,0.06,10.16,4.62,38.60,-42.47,-0.01,-0.42,0.10
0.03,0.01,10.04,4.44,37.99,-41.38,-0.02,-0.43,0.04
0.14,-0.29,10.07,4.81,38.26,-41.82,-0.01,-0.40,0.14
0.55,-0.09,9.97,5.38,38.72,-41.96,-0.01,-0.40,0.16
0.01,-0.07,10.09,4.88,38.34,-40.94,-0.01,-0.39,0.14
0.37,-0.11,9.67,5.48,38.45,-41.27,-0.01,-0.46,0.16
0.19,0.24,10.08,5.66,38.04,-41.92,-0.04,-0.48,0.04
0.40,0.11,10.17,5.57,38.61,-42.17,-0.04,-0.41,-0.02
0.30,-0.11,9.93,5.39,38.44,-42.62,-0.01,-0.38,0.02
-0.05,-0.45,9.97,5.93,38.15,-42.21,0.00,-0.37,0.32
0.44,-0.01,9.97,6.08,37.85,-41.42,-0.05,-0.46,0.35
0.16,0.51,10.05,6.15,37.74,-41.63,-0.02,-0.38,0.15
0.05,0.17,9.96,5.54,37.88,-41.52,-0.00,-0.36,0.02
-0.09,0.27,10.06,5.86,37.77,-42.21,-0.02,-0.38,-0.02
0.54,-0.16,9.57,5.86,37.99,-42.30,0.31,-0.41,0.15
0.14,0.19,9.74,5.77,37.78,-41.90,0.01,-0.45,0.25
0.23,0.31,10.02,6.15,37.37,-42.75,-0.03,-0.42,0.07
0.56,-0.07,9.75,5.89,38.02,-42.36,-0.05,-0.40,0.06
0.24,-0.02,10.26,5.85,37.42,-42.22,-0.05,-0.45,0.11
0.13,-1.82,9.90,6.62,37.45,-43.17,-0.03,-0.40,0.05
0.22,-0.09,10.17,6.11,37.62,-42.84,-0.01,-0.42,0.11
0.20,0.16,10.42,6.46,37.18,-42.34,-0.02,-0.38,0.06
-1.59,-0.02,9.91,6.68,37.39,-41.70,0.00,-0.40,0.17
0.24,0.19,10.01,6.50,37.18,-41.89,-0.04,-0.40,0.09
0.34,-0.20,9.91,6.74,37.55,-41.96,0.03,-0.39,0.09
0.38,-0.01,10.09,6.43,37.34,-41.68,-0.02,-0.36,0.07
0.29,-0.04,9.96,6.58,37.14,-41.79,-0.00,-0.33,0.10
0.10,-1.67,10.00,6.83,37.01,-42.18,-0.02,-0.43,0.20
-0.35,0.17,9.93,7.02,37.23,-42.34,-0.04,-0.40,0.17
-0.04,0.05,9.99,7.03,36.73,-42.05,-0.02,-0.41,0.09
0.09,-0.01,10.11,7.04,36.71,-41.32,-0.03,-0.40,0.06
0.07,0.09,9.91,7.41,37.02,-42.72,-0.02,-0.41,0.07
0.31,-0.05,10.04,6.83,36.58,-41.89,-0.01,-0.43,0.08
0.24,0.08,10.00,6.45,36.82,-42.65,0.01,-0.40,0.14
0.53,-0.13,10.19,6.62,36.42,-42.36,-0.03,-0.40,0.19
0.15,0.32,9.70,7.42,36.58,-42.94,-0.04,-0.61,0.17
-1.79,0.01,10.11,7.73,36.19,-41.60,-0.02,-0.46,0.27
0.12,0.19,10.14,8.26,36.25,-41.96,-0.03,-0.38,0.25
0.17,0.33,10.09,8.42,35.57,-41.32,0.01,-0.41,0.15
-0.27,0.01,10.22,8.70,35.93,-42.24,0.01,-0.40,0.16
-0.13,0.19,10.21,8.30,36.00,-41.51,0.01,-0.40,0.08
0.16,-0.12,9.83,8.39,35.97,-41.77,-0.01,-0.38,0.06
0.14,-0.20,10.14,8.05,36.28,-42.49,-0.00,-0.38,0.09
0.44,0.20,9.97,8.20,36.29,-42.87,-0.03,-0.40,0.17
0.43,1.81,9.88,7.98,36.44,-41.87,-0.03,-0.40,0.17
1.40,-0.27,10.24,8.42,36.38,-41.67,-0.03,-0.39,0.13
0.57,0.00,9.62,8.70,36.58,-42.22,-0.04,-0.39,0.11
0.03,0.01,10.41,8.62,36.38,-42.52,-0.01,-0.44,0.15
0.02,0.12,9.94,8.68,36.04,-42.33,-0.00,-0.43,0.14
0.11,0.11,9.91,8.75,35.81,-42.09,-0.04,-0.38,0.05
1.71,-0.53,10.11,8.62,36.16,-41.65,0.01,-0.42,0.17
0.57,-0.01,9.93,8.62,36.01,-42.08,-0.01,-0.39,0.15
0.08,-0.39,10.31,9.15,36.07,-43.38,-0.00,-0.37,-0.02
0.22,0.19,10.09,8.93,36.12,-42.52,-0.01,-0.40,0.09
-0.11,-0.32,10.13,9.24,36.20,-42.21,-0.02,-0.36,0.01
-0.13,-0.32,10.07,8.70,35.87,-42.65,-0.03,-0.40,0.11
0.11,0.19,10.28,8.77,35.84,-42.15,-0.03,-0.44,0.11
0.06,-0.06,10.29,8.97,36.25,-41.51,-0.02,-0.38,0.09
0.14,-0.04,10.08,9.12,35.85,-42.08,0.00,-0.47,0.16
0.83,0.03,10.12,9.18,36.12,-42.02,0.00,-0.40,0.11
-0.05,-0.13,10.14,9.53,35.53,-42.25,-0.02,-0.35,0.04
0.50,0.04,10.14,9.49,36.23,-42.71,-0.02,-0.44,0.16
0.31,0.42,9.81,9.81,35.79,-42.40,0.00,-0.41,0.12
0.65,0.00,10.07,9.60,35.85,-42.77,-0.01,-0.34,0.06
0.95,0.01,10.11,9.05,35.90,-42.98,0.01,-0.37,0.40
-0.02,0.15,10.20,10.11,35.47,-42.46,-0.03,-0.36,0.39
-0.19,0.06,9.99,10.33,35.57,-42.69,-0.04,-0.33,0.32
-0.41,-0.22,10.19,10.25,35.28,-41.93,-0.04,-0.41,0.13
-0.12,-0.11,9.85,10.39,35.09,-42.33,-0.02,-0.41,0.12
-0.35,0.19,10.06,10.04,34.60,-42.27,-0.01,-0.40,0.11
-0.29,0.10,10.34,10.00,35.37,-42.50,0.00,-0.42,0.10
-0.06,1.77,10.15,10.49,35.46,-42.17,-0.00,-0.41,0.07
0.48,0.14,10.14,10.87,34.92,-42.44,-0.02,-0.36,0.00
-0.03,-0.08,9.96,10.45,35.40,-43.42,-0.02,-0.36,0.01
0.48,-0.03,9.61,10.41,35.25,-42.02,-0.02,-0.35,0.00
0.60,-0.05,10.27,10.92,35.38,-43.12,-0.03,-0.38,0.08
0.11,0.05,9.98,10.74,34.81,-42.69,-0.02,-0.43,0.29
-1.77,0.07,9.87,10.60,34.95,-42.90,-0.03,-0.39,0.09
0.45,0.09,10.13,10.90,35.25,-42.79,-0.02,-0.42,0.07
-0.05,-0.18,10.32,11.05,35.25,-42.63,-0.00,-0.40,0.11
0.10,-0.03,9.76,10.87,35.24,-43.10,0.00,-0.40,0.07
0.00,-0.09,10.16,10.63,35.24,-42.62,-0.00,-0.41,0.02
0.47,-0.07,9.91,10.82,34.98,-43.16,-0.01,-0.37,-0.03
0.09,-0.14,10.15,10.83,35.21,-42.31,-0.03,-0.36,0.00
-0.15,0.00,10.20,10.07,35.00,-41.79,-0.04,-0.40,0.06
0.60,0.06,10.04,10.63,35.27,-42.52,-0.05,-0.36,0.01
0.62,-0.08,9.99,11.06,34.68,-42.94,-0.06,-0.28,0.00
0.32,-0.12,10.18,10.68,35.12,-42.46,-0.02,-0.39,0.06
0.01,0.38,10.28,10.77,35.19,-42.02,0.00,-0.35,-0.05
0.01,0.11,10.17,11.24,34.83,-41.35,-0.00,-0.40,-0.01
0.20,0.11,10.06,11.17,34.39,-41.16,-0.01,-0.38,0.02
0.07,0.11,9.93,10.65,34.71,-41.77,-0.01,-0.42,0.05
0.19,-0.02,10.39,11.05,34.74,-42.60,-0.05,-0.36,0.01
0.27,0.06,9.76,10.80,35.05,-41.90,-0.02,-0.42,0.03
0.43,-0.01,10.07,10.48,34.98,-41.45,-0.04,-0.44,0.03
0.14,-0.27,10.28,10.77,35.00,-41.58,0.00,-0.43,0.07
-0.33,-1.58,10.82,11.08,34.90,-41.49,0.00,-0.42,0.11
-0.55,0.17,10.37,10.74,34.74,-41.26,-0.01,-0.43,0.16
0.21,-0.14,10.42,10.83,34.10,-41.38,-0.01,-0.38,-0.13
0.11,-0.04,10.08,10.38,34.32,-41.98,-0.01,-0.37,-0.08
0.26,1.78,9.94,10.77,34.48,-41.99,-0.03,-0.35,0.02
0.51,-0.01,9.88,10.84,34.89,-41.39,-0.02,-0.36,0.03
0.91,0.06,9.93,10.55,34.52,-42.69,-0.01,-0.36,0.07
0.66,0.18,10.11,10.82,34.80,-42.22,-0.02,-0.42,0.07
0.04,0.09,10.04,10.87,35.15,-41.92,-0.02,-0.47,0.07
0.01,0.37,10.14,10.68,35.00,-42.37,-0.03,-0.45,0.09
0.39,0.17,9.95,10.74,34.86,-42.39,-0.01,-0.45,0.08
0.19,-0.10,10.03,10.44,34.73,-42.87,-0.02,-0.42,0.07
-0.04,-0.14,9.77,10.68,35.18,-41.80,-0.02,-0.48,0.22
0.12,0.19,9.99,10.52,35.12,-43.54,-0.02,-0.46,0.26
0.37,0.15,10.06,10.46,35.02,-42.31,-0.02,-0.38,0.07
0.26,-0.13,10.17,10.55,35.05,-41.51,-0.02,-0.42,0.08
0.29,0.05,10.14,10.49,34.92,-42.11,-0.02,-0.44,0.17
-0.17,0.27,10.44,10.44,35.11,-42.36,-0.01,-0.38,-0.02
-0.14,0.04,10.01,10.98,34.90,-43.01,-0.02,-0.41,0.08
0.17,0.06,10.09,10.82,35.02,-42.82,-0.02,-0.41,0.06
0.20,0.01,10.11,10.64,35.19,-42.05,-0.02,-0.39,0.06
0.22,0.04,10.01,10.20,34.84,-42.53,-0.02,-0.39,0.06
0.25,0.09,10.18,10.29,35.37,-42.08,-0.01,-0.37,0.06
0.39,-0.08,10.04,10.41,35.05,-42.74,-0.01,-0.33,0.07
0.28,0.00,10.14,10.83,35.02,-42.87,0.01,-0.33,0.07
0.18,-0.02,10.12,10.89,35.43,-42.52,0.00,-0.34,0.07
0.24,0.05,10.26,10.92,35.30,-42.77,0.02,-0.25,0.07
0.54,-0.12,9.99,11.74,35.25,-42.53,0.01,-0.21,0.10
0.36,-0.11,10.18,11.63,35.41,-42.47,0.03,-0.19,0.16
0.34,0.19,10.27,12.25,35.50,-42.37,0.08,-0.06,0.33
0.37,-0.17,10.15,12.25,35.21,-41.96,0.05,-0.03,0.18
0.88,-0.11,10.24,12.61,35.06,-41.52,0.02,0.09,0.15
0.82,-0.17,9.78,13.87,35.05,-41.89,0.02,0.19,0.14
0.78,-0.11,10.09,14.95,35.02,-42.09,0.02,0.33,0.07
1.09,-0.07,9.93,16.30,35.00,-41.54,0.01,0.39,0.06
1.11,0.05,10.31,17.04,34.92,-40.41,-0.05,0.23,0.07
1.81,0.17,9.91,17.49,34.41,-40.72,-0.05,0.47,0.07
1.93,0.02,9.82,19.19,34.73,-39.94,-0.03,0.54,0.06
2.48,-0.04,9.71,22.11,34.55,-38.44,-0.03,0.50,0.06
2.78,-0.05,9.56,23.24,34.13,-38.03,-0.03,0.45,0.06
2.99,0.07,9.60,24.10,34.11,-37.71,-0.02,0.48,0.06
3.17,-0.01,9.68,25.39,34.11,-36.74,-0.02,0.58,0.06
3.62,1.82,9.37,25.74,34.01,-36.54,-0.02,0.76,0.05
4.03,-0.02,9.30,27.64,34.20,-35.03,-0.02,0.76,0.05
4.29,-0.08,8.94,28.75,34.00,-34.52,-0.02,0.77,0.05
4.65,-0.09,8.59,30.50,34.26,-33.25,-0.02,0.63,0.06
4.66,-0.12,8.73,31.54,34.23,-32.26,-0.03,0.70,0.06
5.28,-0.11,8.31,32.74,34.23,-31.53,-0.02,0.66,0.05
4.87,-0.04,8.63,33.46,34.39,-31.35,-0.02,0.66,0.06
5.65,-0.04,7.95,34.20,34.27,-29.86,-0.03,0.81,0.06
5.79,-0.05,7.51,35.46,34.46,-28.52,-0.02,0.50,0.06
6.10,-0.11,7.56,36.13,34.38,-27.57,-0.02,0.44,0.06
6.01,1.80,7.98,36.82,34.01,-27.16,-0.02,0.19,0.07
6.09,-0.14,7.57,37.18,34.43,-26.72,-0.02,0.51,0.06
6.37,-0.17,7.25,37.87,34.39,-25.65,-0.02,0.42,0.06
6.96,0.42,7.70,38.59,34.38,-24.13,-0.02,0.34,0.06
7.03,-0.19,6.73,39.61,34.22,-23.27,-0.02,0.60,0.06
7.21,-0.01,6.37,40.31,33.50,-21.98,-0.02,0.33,0.05
7.26,-0.15,6.68,40.54,34.10,-21.38,-0.02,0.17,0.05
7.63,-0.03,5.81,40.98,34.24,-20.86,-0.01,-0.09,0.05
7.49,-0.03,6.25,42.01,33.88,-20.68,-0.01,-0.38,0.05
7.20,-0.25,6.84,41.79,34.17,-20.26,-0.02,-0.31,0.06
7.26,-0.19,6.62,41.30,34.48,-20.46,-0.02,-0.14,0.06
7.31,0.03,6.45,41.23,34.13,-20.39,-0.02,-0.05,0.07
7.47,0.17,6.22,41.87,34.04,-20.24,-0.02,-0.10,0.06
7.72,-0.50,7.01,41.84,33.91,-19.39,-0.14,-0.34,-0.03
7.26,-0.10,6.20,41.74,33.98,-19.61,-0.06,-0.11,0.02
7.72,0.09,5.90,41.95,34.52,-18.56,-0.04,0.07,0.05
7.52,-0.54,5.89,42.33,34.23,-19.01,-0.03,-0.02,0.06
7.68,-1.83,5.92,42.94,34.32,-18.14,-0.02,-0.06,0.06
7.72,-0.05,6.22,42.71,34.20,-18.08,-0.03,0.12,0.07
8.07,0.19,5.41,43.29,34.11,-16.59,-0.02,0.33,0.06
8.18,0.04,5.46,43.77,34.33,-15.02,-0.02,0.12,0.06
8.39,-0.28,4.57,43.58,33.86,-15.99,-0.09,0.18,0.01
8.99,0.42,3.54,44.71,34.24,-13.90,-0.25,0.34,-0.08
8.02,-0.57,3.88,44.33,34.20,-13.52,-0.07,-0.52,-0.03
8.30,0.35,5.78,44.40,33.92,-13.99,-0.03,-0.69,0.07
8.00,0.25,5.55,44.18,33.86,-14.70,-0.06,-0.33,0.02
8.61,-0.24,5.26,44.48,33.85,-14.59,-0.08,-0.43,0.01
8.08,-0.52,4.70,44.17,33.92,-14.43,-0.15,-0.58,-0.01
7.69,-0.40,4.58,43.55,34.33,-13.86,-0.31,-0.27,-0.14
8.32,-0.45,3.77,43.66,34.13,-14.70,-0.33,-0.54,-0.13
