Accel_X,Accel_Y,Accel_Z,Mag_X,Mag_Y,Mag_Z,Gyro_X,Gyro_Y,Gyro_Z
0.46,0.13,9.86,20.99,27.35,-44.02,-0.09,-1.87,0.01
0.38,0.14,9.75,20.97,26.95,-43.64,-0.09,-1.87,0.01
0.44,0.13,9.78,21.06,27.76,-43.96,-0.09,-1.87,0.01
0.49,0.24,9.66,21.13,27.30,-44.36,-0.09,-1.87,0.01
0.35,0.18,9.74,21.03,27.33,-43.50,-0.09,-1.88,0.01
0.47,0.14,9.66,21.12,27.17,-43.80,-0.10,-1.88,0.00
0.37,0.24,9.65,21.09,27.73,-43.86,-0.09,-1.87,0.01
0.42,0.14,9.82,21.06,27.45,-43.64,-0.09,-1.87,0.00
0.46,0.18,9.68,20.74,27.65,-44.11,-0.09,-1.88,0.00
0.42,0.18,9.84,20.93,27.19,-44.34,-0.09,-1.87,0.00
0.48,0.17,9.68,21.13,27.14,-44.64,-0.09,-1.87,0.01
0.48,0.20,9.78,20.75,27.35,-43.57,-0.09,-1.87,0.01
0.42,0.19,9.74,21.22,27.51,-43.42,-0.09,-1.87,0.01
0.42,0.19,9.77,21.22,27.23,-43.83,-0.09,-1.87,0.01
0.45,0.11,9.69,20.70,27.08,-43.88,-0.09,-1.87,0.00
0.52,0.23,9.84,20.97,27.33,-43.03,-0.10,-1.87,0.01
0.42,0.10,9.79,21.22,27.81,-43.36,-0.09,-1.88,0.01
0.53,0.19,9.88,20.71,27.17,-43.31,-0.09,-1.87,0.00
0.44,0.13,9.78,21.10,27.39,-43.07,-0.09,-1.87,0.01
0.44,0.18,9.81,21.10,27.68,-43.95,-0.09,-1.88,0.01
0.36,0.13,9.81,20.86,27.96,-43.66,-0.09,-1.86,0.00
0.39,0.15,9.82,21.16,27.81,-42.65,-0.09,-1.87,0.00
0.47,0.15,9.83,21.09,27.36,-42.69,-0.09,-1.88,0.00
0.31,0.18,9.78,21.05,27.64,-43.36,-0.10,-1.87,0.00
0.38,0.19,9.80,21.05,27.52,-43.09,-0.09,-1.88,0.01
0.37,0.08,9.87,20.43,27.77,-42.97,-0.10,-1.87,0.00
0.45,0.17,9.74,20.62,27.89,-43.01,-0.09,-1.88,0.00
0.51,0.10,9.86,21.21,27.35,-42.37,-0.09,-1.87,0.00
0.38,0.11,9.90,21.08,27.61,-43.13,-0.09,-1.87,0.00
0.45,0.19,9.81,20.48,27.52,-43.06,-0.09,-1.87,0.01
0.41,0.16,9.92,20.33,27.33,-42.62,-0.09,-1.87,0.00
0.43,0.28,9.99,20.34,27.90,-43.29,-0.09,-1.87,0.00
0.42,0.17,9.78,20.68,27.64,-43.67,-0.09,-1.87,0.01
0.40,0.17,9.77,20.68,27.70,-43.91,-0.09,-1.87,0.01
0.46,0.18,9.85,20.91,27.74,-43.12,-0.09,-1.87,0.01
0.49,0.13,9.85,20.49,27.46,-42.87,-0.09,-1.87,0.01
0.34,0.18,9.91,20.93,27.62,-42.31,-0.09,-1.87,0.01
0.37,0.15,9.89,20.99,27.81,-42.40,-0.10,-1.87,0.00
0.47,0.17,9.96,20.80,27.86,-42.88,-0.09,-1.87,0.01
0.47,0.20,9.91,20.42,28.02,-43.12,-0.09,-1.87,0.00
0.47,0.16,9.85,20.78,27.64,-43.39,-0.09,-1.87,0.00
0.39,0.13,9.80,20.91,27.77,-43.55,-0.09,-1.87,0.01
0.39,0.15,9.91,20.78,27.87,-42.96,-0.09,-1.88,0.01
0.41,0.14,9.78,20.43,27.45,-43.06,-0.09,-1.87,0.01
0.47,0.20,9.94,20.75,27.70,-43.51,-0.09,-1.87,0.00
0.37,0.15,9.90,20.94,27.64,-42.94,-0.09,-1.87,0.01
0.41,0.16,9.89,20.43,27.24,-43.03,-0.09,-1.87,0.01
0.44,0.21,9.89,20.43,27.46,-43.01,-0.10,-1.88,0.01
0.41,0.24,9.97,20.59,27.61,-42.71,-0.09,-1.88,0.01
0.42,0.19,9.81,20.34,27.23,-42.33,-0.09,-1.87,0.01
0.44,0.14,9.91,20.37,27.45,-42.55,-0.09,-1.87,0.01
0.39,0.19,9.83,20.36,27.62,-42.72,-0.09,-1.88,0.00
0.47,0.28,9.91,20.61,27.27,-42.46,-0.09,-1.87,0.00
0.47,0.14,9.99,20.32,27.36,-42.68,-0.09,-1.87,0.00
0.42,0.22,9.96,20.84,27.59,-41.93,-0.09,-1.88,0.00
0.39,0.17,9.91,21.31,27.59,-42.65,-0.10,-1.87,0.01
0.47,0.13,9.88,20.89,27.77,-42.09,-0.09,-1.87,0.01
0.47,0.21,9.94,20.29,28.02,-42.72,-0.09,-1.88,0.01
0.45,0.27,9.96,20.78,27.23,-41.77,-0.09,-1.88,0.01
0.42,0.09,9.95,20.48,27.45,-43.44,-0.09,-1.88,0.01
0.40,0.16,9.88,20.43,27.57,-42.21,-0.09,-1.87,0.01
0.35,0.14,9.93,20.45,27.23,-42.39,-0.09,-1.87,0.01
0.45,0.19,9.99,20.08,27.45,-42.52,-0.10,-1.87,0.01
0.45,0.14,9.94,19.99,27.57,-41.63,-0.13,-2.02,0.12
0.51,0.12,10.15,20.04,27.24,-42.41,-0.10,-1.41,0.11
0.65,-0.03,9.73,20.02,27.36,-42.47,-0.08,-0.91,0.11
0.60,0.27,9.83,19.77,27.52,-42.33,-0.05,-0.47,0.09
0.19,0.55,10.10,20.48,27.61,-42.43,0.01,-0.22,0.07
0.75,0.06,9.91,19.91,28.27,-42.08,0.03,0.08,0.05
0.57,-0.04,9.97,20.23,27.78,-42.33,0.03,0.30,0.06
0.47,-0.06,10.00,20.49,27.40,-42.39,0.01,0.44,0.01
0.43,0.16,9.91,20.15,27.45,-42.44,-0.05,0.22,0.87
0.27,0.18,10.11,20.24,27.96,-42.12,0.02,0.25,0.30
0.52,0.25,9.91,20.23,27.55,-42.43,-0.01,0.31,-0.10
0.57,0.06,9.83,19.92,27.55,-43.06,-0.00,0.37,-0.25
0.28,-0.26,9.88,19.39,28.22,-43.42,-0.02,0.42,-0.32
0.88,-0.04,9.59,20.20,28.18,-43.41,0.01,0.41,-0.08
0.52,0.20,10.00,19.76,28.27,-42.34,0.01,0.35,0.06
0.07,0.19,9.88,20.29,28.25,-42.84,-0.04,0.34,-0.45
0.52,0.14,10.13,19.73,28.43,-42.79,-0.00,0.31,-0.16
0.61,-0.01,10.14,19.82,28.05,-42.94,0.00,0.26,-0.08
0.42,0.19,9.93,19.50,27.96,-43.17,0.01,0.21,0.04
0.53,0.11,9.70,19.83,28.35,-42.88,-0.03,0.27,-0.41
0.30,0.48,10.24,19.70,28.44,-43.31,-0.05,0.18,-0.28
0.36,0.23,9.85,19.82,28.56,-43.74,-0.02,0.15,-0.29
0.49,-1.84,9.86,19.94,28.92,-43.35,-0.01,0.10,-0.32
0.18,0.31,10.26,19.22,28.59,-43.19,-0.01,0.07,-0.43
0.55,0.17,10.15,19.22,29.25,-43.69,-0.02,0.05,-0.38
0.22,0.14,9.73,18.47,29.28,-43.10,-0.03,-0.06,-0.16
0.83,-0.14,9.90,17.83,29.44,-42.88,0.00,-0.08,-0.15
0.71,-0.14,9.97,18.27,29.39,-42.82,-0.03,-0.09,-0.23
0.57,-0.11,10.07,18.15,29.11,-43.41,-0.02,-0.16,-0.26
0.66,0.05,10.32,17.87,29.39,-42.91,-0.06,-0.32,-0.26
0.66,-0.04,9.91,17.52,29.98,-43.45,-0.02,-0.17,-0.31
0.01,0.95,10.21,17.47,30.25,-43.12,-0.05,-0.20,-0.49
0.81,-0.43,9.52,17.10,30.39,-42.87,-0.04,-0.22,-0.41
0.50,0.12,9.71,17.38,30.40,-42.97,-0.03,-0.27,-0.50
0.22,-0.01,9.99,16.85,30.93,-43.38,-0.04,-0.30,-0.50
1.29,0.23,10.29,16.63,31.12,-42.93,-0.05,-0.33,-0.48
1.06,-1.67,10.14,16.59,30.88,-43.28,-0.03,-0.40,-0.36
0.78,-0.04,9.96,16.02,31.63,-43.22,-0.04,-0.37,-0.41
0.95,-0.20,10.52,15.89,31.51,-43.17,-0.02,-0.39,-0.37
0.62,0.55,10.50,16.08,31.16,-42.85,-0.06,-0.38,-0.32
0.47,0.20,10.52,16.05,31.70,-43.47,-0.04,-0.38,-0.29
0.29,0.21,9.96,15.36,31.53,-43.76,-0.06,-0.41,-0.34
0.81,0.11,10.25,15.51,32.68,-43.48,-0.05,-0.39,-0.44
0.78,0.13,9.90,14.98,31.86,-44.42,-0.03,-0.40,-0.42
0.65,0.31,10.08,14.73,32.30,-44.34,-0.01,-0.41,-0.33
0.58,-0.24,10.24,14.47,32.39,-43.54,-0.04,-0.42,-0.34
0.64,0.43,9.58,14.02,32.32,-43.88,-0.02,-0.44,-0.08
0.19,0.16,10.12,14.19,32.70,-44.15,-0.04,-0.42,-0.25
0.10,0.37,9.91,13.50,32.37,-43.61,-0.05,-0.36,-0.30
0.50,-0.01,10.29,13.62,32.46,-43.77,-0.02,-0.41,-0.13
0.45,-0.07,9.86,13.55,33.22,-43.60,-0.04,-0.39,-0.31
0.64,0.32,10.05,13.20,33.09,-43.32,-0.03,-0.36,-0.39
0.42,0.04,9.30,12.26,33.27,-43.74,-0.10,-0.35,-0.69
0.29,-0.11,9.71,12.54,33.47,-43.96,-0.07,-0.38,-0.57
0.53,0.09,10.32,11.69,33.62,-43.36,-0.07,-0.37,-0.53
0.08,0.29,10.31,12.00,33.47,-44.10,-0.07,-0.37,-0.57
0.67,-0.80,10.27,10.95,33.81,-44.08,-0.04,-0.36,-0.76
0.69,0.20,10.16,11.15,34.13,-43.12,-0.05,-0.38,-0.51
0.37,0.42,9.99,10.83,34.00,-43.01,-0.06,-0.38,-0.34
0.52,0.32,9.86,10.35,34.24,-43.31,-0.05,-0.39,-0.44
0.95,-0.11,10.32,10.14,34.62,-43.16,-0.12,-0.43,-0.40
0.39,-0.13,10.17,10.14,34.36,-44.34,-0.05,-0.44,-0.31
-0.10,0.72,10.24,9.92,34.46,-43.51,-0.05,-0.45,-0.34
0.48,-0.85,9.48,9.13,34.57,-43.91,-0.04,-0.45,-0.47
0.91,0.38,9.40,8.92,34.39,-43.44,-0.10,-0.42,-0.42
0.24,0.36,9.87,8.78,34.76,-43.76,-0.04,-0.43,-0.13
0.04,0.26,10.42,8.97,34.41,-43.39,-0.08,-0.38,-0.35
-1.58,-0.01,10.06,8.40,34.61,-43.91,-0.03,-0.41,-0.28
0.82,0.14,11.17,7.94,34.67,-43.89,-0.06,-0.38,-0.47
0.90,0.52,10.34,8.16,34.60,-44.62,-0.12,-0.37,-0.48
-0.19,-0.22,9.61,7.34,34.84,-44.02,-0.08,-0.48,-0.22
0.52,0.15,9.98,6.87,34.74,-45.10,-0.02,-0.45,0.02
0.45,-0.02,10.78,7.15,35.06,-44.48,-0.07,-0.39,-0.52
0.28,-0.01,9.95,6.61,35.62,-44.27,-0.07,-0.39,-0.47
-0.19,0.02,10.00,6.39,34.92,-43.66,-0.06,-0.37,-0.44
1.20,-0.30,9.35,5.99,34.93,-44.84,-0.03,-0.39,-0.14
0.73,0.09,10.18,5.93,35.02,-44.53,-0.03,-0.38,-0.21
0.30,0.63,9.53,5.57,34.87,-44.67,-0.06,-0.42,-0.24
0.73,-0.21,10.24,5.45,35.41,-44.58,-0.03,-0.41,-0.22
1.13,0.42,9.57,5.54,35.75,-44.55,-0.05,-0.42,-0.18
0.58,-0.08,9.94,5.10,35.66,-44.48,-0.02,-0.42,0.01
0.18,0.19,10.20,4.85,35.69,-44.10,-0.03,-0.42,-0.11
0.78,-0.13,10.14,4.27,35.75,-44.52,-0.05,-0.37,-0.30
0.67,-0.01,10.10,4.53,35.47,-44.27,-0.02,-0.40,-0.09
0.78,0.24,10.06,3.99,36.09,-44.71,-0.06,-0.31,-0.40
0.55,0.21,9.56,3.54,35.97,-44.33,-0.04,-0.39,-0.22
0.45,0.50,10.10,3.57,36.14,-43.77,-0.03,-0.36,-0.23
0.22,0.34,9.98,3.70,36.52,-43.93,-0.04,-0.39,-0.21
0.55,0.15,10.02,3.13,36.86,-44.83,-0.02,-0.41,-0.09
0.55,0.09,9.89,3.45,36.39,-44.23,-0.02,-0.39,-0.11
0.34,-0.03,9.94,3.32,36.07,-44.61,-0.02,-0.41,-0.09
0.57,0.11,10.12,3.36,36.60,-44.55,-0.02,-0.43,-0.06
1.11,-0.22,9.89,3.01,36.54,-44.10,-0.04,-0.38,-0.28
-0.14,0.22,10.28,2.97,36.58,-44.78,-0.04,-0.43,-0.11
0.15,-0.12,9.86,2.84,36.54,-44.39,-0.04,-0.41,-0.15
0.72,-0.12,9.95,2.21,36.58,-44.52,-0.04,-0.39,-0.17
0.60,0.14,10.13,2.27,36.32,-43.88,-0.03,-0.45,-0.04
0.61,-0.26,10.00,1.99,36.57,-44.50,-0.05,-0.39,-0.30
0.50,0.06,10.17,1.14,36.82,-44.49,-0.03,-0.39,-0.24
-0.24,0.30,10.14,0.96,36.29,-44.01,-0.04,-0.45,-0.08
1.42,-0.28,9.97,1.01,35.91,-44.31,-0.04,-0.44,-0.20
1.20,0.23,9.48,1.36,35.87,-44.11,-0.06,-0.44,-0.33
0.34,0.08,10.24,1.01,36.04,-44.55,-0.03,-0.33,-0.54
1.08,-0.24,10.57,0.67,36.16,-44.90,-0.04,-0.41,-0.27
0.59,0.18,9.57,0.69,35.82,-44.59,-0.08,-0.32,-0.71
0.37,-0.07,10.50,-0.10,35.66,-44.17,-0.03,-0.46,-0.13
1.20,0.14,10.37,-0.31,35.38,-44.90,-0.03,-0.37,-0.44
0.17,-0.13,10.36,-0.61,35.78,-45.31,-0.02,-0.38,-0.46
0.29,0.31,10.11,-0.80,35.46,-44.15,-0.06,-0.38,-0.44
0.83,0.84,9.79,-1.62,35.31,-44.88,-0.09,-0.31,-0.54
0.38,-0.49,9.85,-1.24,35.31,-44.39,-0.05,-0.37,-0.27
0.72,0.47,10.22,-1.64,35.55,-44.56,-0.06,-0.34,-0.34
0.29,-0.13,9.99,-2.12,35.34,-44.14,-0.06,-0.32,-0.46
0.09,-0.19,10.27,-2.38,35.31,-44.17,-0.03,-0.37,-0.40
0.65,0.18,9.75,-2.29,35.18,-44.33,-0.04,-0.39,-0.05
0.99,-1.50,9.62,-2.67,34.87,-44.49,-0.03,-0.38,-0.41
1.08,0.45,9.94,-2.85,34.45,-44.90,-0.02,-0.41,-0.01
0.88,-0.26,9.46,-3.05,34.67,-44.61,-0.07,-0.44,-0.29
0.44,1.08,10.34,-2.94,34.54,-45.28,-0.04,-0.42,-0.13
1.39,-0.60,10.33,-3.43,35.27,-45.07,-0.04,-0.42,-0.22
0.82,0.22,10.36,-3.36,34.92,-44.84,-0.05,-0.39,-0.18
1.46,-1.31,9.59,-3.68,34.68,-44.69,-0.04,-0.40,-0.29
1.04,1.03,9.76,-3.80,35.31,-45.06,-0.05,-0.38,-0.34
0.45,0.89,10.50,-4.24,34.76,-45.25,-0.05,-0.42,-0.44
0.97,1.60,8.89,-4.36,34.87,-44.14,-0.03,-0.36,-0.27
0.40,0.22,10.15,-4.44,34.83,-45.24,-0.02,-0.46,0.05
1.11,-0.43,9.73,-5.12,35.02,-45.06,-0.05,-0.41,-0.24
0.47,0.22,10.33,-4.91,34.68,-45.43,-0.04,-0.38,-0.24
0.65,0.35,10.18,-5.64,34.58,-44.81,-0.02,-0.40,-0.14
0.23,1.52,10.34,-5.48,34.19,-44.61,-0.03,-0.39,-0.20
0.06,0.11,10.16,-5.44,34.98,-45.22,-0.05,-0.34,-0.38
0.33,0.50,10.12,-5.76,34.79,-45.16,-0.03,-0.39,-0.15
0.09,0.60,9.94,-5.52,34.23,-45.43,-0.05,-0.40,-0.03
0.61,0.30,9.97,-5.85,34.14,-46.36,-0.07,-0.33,-0.36
0.02,0.65,9.81,-5.73,34.11,-45.41,-0.06,-0.38,-0.33
0.67,-0.11,9.77,-5.90,34.38,-45.26,-0.03,-0.38,-0.28
1.51,-0.06,9.66,-6.05,33.75,-45.02,-0.05,-0.38,-0.28
0.95,-0.35,9.97,-6.46,33.86,-45.09,-0.03,-0.38,-0.16
1.77,-0.17,9.31,-6.36,34.04,-45.10,-0.05,-0.38,-0.35
0.24,0.23,9.57,-6.83,33.47,-44.50,-0.05,-0.39,-0.27
0.66,0.05,10.20,-6.64,33.59,-44.67,-0.03,-0.41,-0.06
0.98,0.06,9.97,-7.29,33.72,-44.75,-0.02,-0.40,0.01
0.75,0.32,9.93,-7.06,33.41,-45.41,-0.01,-0.43,0.05
0.62,0.43,9.99,-7.10,33.41,-45.43,-0.01,-0.44,0.02
0.62,1.00,9.46,-7.22,33.75,-45.02,-0.05,-0.39,-0.42
0.69,-0.07,9.60,-7.32,33.88,-45.05,-0.02,-0.48,-0.07
0.98,0.33,9.73,-7.23,33.56,-45.07,-0.04,-0.43,-0.44
1.03,0.58,10.06,-7.82,33.65,-44.59,-0.03,-0.45,-0.12
0.49,0.39,9.91,-8.11,33.79,-45.07,-0.04,-0.38,-0.26
-0.50,-0.15,9.69,-8.37,32.93,-44.81,-0.03,-0.43,-0.10
0.28,0.01,10.52,-8.33,33.25,-45.75,-0.05,-0.42,-0.11
-0.57,0.54,10.72,-7.99,33.13,-44.68,-0.06,-0.50,-0.01
0.30,-0.78,10.83,-8.26,32.87,-44.91,-0.06,-0.49,-0.18
0.04,0.57,10.31,-7.80,33.00,-45.92,-0.07,-0.34,0.01
0.58,0.11,9.30,-8.07,32.53,-45.64,-0.03,-0.46,0.05
0.32,0.11,10.37,-8.20,32.81,-46.40,-0.01,-0.35,0.06
0.45,0.26,9.68,-7.80,32.42,-45.57,-0.02,-0.41,0.06
0.23,0.11,9.94,-7.72,32.33,-45.97,-0.02,-0.39,0.06
0.55,0.19,10.25,-7.94,32.89,-45.66,-0.03,-0.40,0.06
0.68,0.14,9.86,-8.18,32.53,-45.25,-0.02,-0.36,0.06
0.64,0.30,10.01,-8.27,32.53,-45.38,-0.02,-0.40,0.06
0.67,0.08,9.99,-8.14,32.42,-45.22,-0.02,-0.39,0.06
0.55,0.11,10.01,-8.13,32.46,-45.69,-0.02,-0.41,0.06
0.43,0.13,10.09,-7.50,32.43,-45.45,-0.02,-0.40,0.06
0.33,0.04,9.95,-8.39,32.89,-45.43,-0.02,-0.39,0.06
0.45,0.19,10.12,-8.39,32.51,-45.19,-0.02,-0.39,0.06
0.50,0.14,9.99,-7.54,32.59,-45.95,-0.01,-0.38,0.06
0.62,0.09,10.00,-7.95,32.07,-45.21,-0.02,-0.38,0.06
0.52,0.19,10.01,-8.56,32.43,-45.22,-0.02,-0.40,0.06
0.52,0.11,10.01,-8.13,32.30,-45.56,-0.01,-0.40,0.06
0.52,0.11,10.09,-7.95,32.87,-45.10,-0.02,-0.40,0.06
0.46,0.04,10.20,-8.20,32.53,-45.21,-0.01,-0.39,0.06
0.45,0.00,10.01,-8.14,32.04,-44.91,-0.02,-0.40,0.06
0.51,0.17,10.03,-7.78,31.99,-45.95,-0.02,-0.39,0.06
0.50,0.06,10.09,-7.99,32.40,-45.43,-0.02,-0.39,0.06
0.61,0.18,10.05,-8.02,32.59,-45.19,-0.02,-0.39,0.06
0.58,0.17,10.02,-8.01,32.34,-45.41,-0.01,-0.39,0.06
0.50,0.10,9.93,-8.02,32.46,-45.32,-0.01,-0.40,0.06
0.55,0.16,10.06,-8.18,32.36,-45.28,-0.01,-0.40,0.05
0.57,1.78,10.06,-8.14,32.26,-45.31,-0.04,-0.49,0.06
0.37,0.04,9.90,-8.18,32.78,-45.50,-0.03,-0.44,0.05
0.59,0.34,10.09,-8.23,31.94,-44.24,-0.04,-0.54,-0.19
0.55,-0.04,10.01,-8.70,32.05,-44.68,-0.05,-0.50,-0.35
0.57,0.16,10.11,-8.89,32.14,-45.34,-0.03,-0.56,-0.03
0.32,0.17,10.11,-8.70,32.32,-45.13,-0.03,-0.54,0.05
0.38,0.09,9.93,-9.15,31.89,-44.78,-0.02,-0.46,0.06
0.29,0.13,10.11,-9.16,32.29,-44.96,-0.02,-0.48,0.05
0.06,0.25,10.06,-9.19,31.67,-44.87,-0.04,-0.60,-0.18
0.10,-0.04,9.54,-10.10,31.34,-44.72,0.01,-0.50,-0.10
0.52,0.14,10.16,-9.94,31.50,-44.20,0.00,-0.49,0.06
0.48,0.24,10.01,-9.82,30.84,-44.93,-0.05,-0.35,0.05
0.62,0.30,10.23,-10.23,31.70,-44.31,-0.03,-0.33,-0.12
1.23,0.04,9.69,-10.32,31.34,-44.69,-0.08,-0.24,-0.63
-0.24,-0.03,10.12,-10.51,31.64,-44.68,-0.08,-0.30,-0.72
-0.15,-0.10,9.99,-10.64,31.15,-45.51,-0.05,-0.30,-0.58
-0.24,0.28,10.00,-10.79,30.81,-45.47,-0.05,-0.36,-0.25
-0.09,0.44,10.16,-11.12,30.40,-45.59,-0.05,-0.34,-0.40
-0.09,0.05,10.34,-10.87,30.81,-45.45,-0.07,-0.31,-0.72
0.42,0.41,10.11,-11.27,30.05,-45.32,-0.09,-0.31,-0.71
0.62,0.46,10.29,-12.41,26.43,-45.64,-0.10,-0.39,-0.78
0.46,0.57,9.69,-12.45,29.83,-45.81,-0.08,-0.36,-0.87
-0.16,0.93,9.61,-12.99,29.04,-45.73,-0.09,-0.36,-0.99
0.85,0.29,10.49,-13.21,28.65,-46.14,-0.05,-0.36,-0.81
0.27,-0.25,10.08,-13.68,28.63,-46.42,-0.05,-0.35,-0.65
0.58,-0.04,10.16,-13.58,28.27,-45.75,-0.06,-0.36,-0.60
0.83,-0.11,9.45,-13.74,28.03,-46.52,-0.04,-0.37,-0.42
-0.27,0.22,9.77,-14.19,27.70,-46.14,-0.03,-0.36,-0.37
1.26,0.20,9.87,-14.37,27.67,-45.21,-0.05,-0.39,-0.42
0.60,0.37,10.18,-14.34,27.39,-45.64,-0.02,-0.39,-0.16
1.00,0.57,10.16,-14.25,26.85,-45.62,-0.03,-0.40,-0.33
0.51,0.09,9.96,-14.51,26.72,-45.51,-0.04,-0.45,-0.30
0.45,0.27,9.96,-14.44,26.73,-45.10,-0.06,-0.44,-0.42
0.60,0.24,10.47,-15.49,26.41,-44.96,-0.07,-0.44,-0.43
0.32,0.11,10.11,-15.04,25.61,-45.00,-0.09,-0.38,-0.63
0.04,-0.14,10.06,-15.55,25.31,-45.67,-0.08,-0.52,-0.72
-0.39,0.19,10.10,-15.87,24.90,-45.41,-0.07,-0.51,-0.74
0.10,0.11,10.16,-16.02,24.29,-45.64,-0.03,-0.43,-0.47
0.42,0.12,9.93,-16.30,23.62,-45.44,-0.04,-0.36,-0.27
0.56,0.41,9.97,-15.81,23.68,-45.05,-0.05,-0.35,-0.39
0.51,0.26,10.11,-16.52,23.68,-45.25,-0.05,-0.33,-0.51
0.02,0.10,9.85,-16.72,23.52,-45.57,-0.03,-0.35,-0.47
0.61,0.15,10.08,-16.84,23.22,-45.92,-0.05,-0.36,-0.27
0.47,0.24,9.81,-16.40,23.41,-45.82,-0.02,-0.37,-0.32
0.10,0.20,9.63,-16.88,22.80,-45.66,-0.04,-0.38,-0.32
0.66,0.17,10.16,-16.53,22.98,-45.02,-0.05,-0.39,-0.34
0.63,-0.09,9.59,-16.91,22.84,-45.22,-0.04,-0.39,-0.30
0.83,0.14,9.91,-16.88,22.32,-45.13,-0.04,-0.40,-0.24
1.08,0.08,9.87,-16.95,22.35,-45.13,-0.03,-0.41,-0.29
0.20,0.25,9.91,-17.11,22.36,-45.83,-0.06,-0.39,-0.39
0.38,0.14,10.01,-17.20,21.62,-45.60,-0.06,-0.40,-0.38
0.73,0.03,9.97,-17.16,21.47,-44.59,-0.05,-0.40,-0.30
0.29,0.04,10.14,-17.68,20.99,-44.77,-0.05,-0.41,-0.21
0.38,-0.05,10.14,-17.71,21.12,-45.19,-0.04,-0.41,-0.34
0.25,0.14,10.12,-17.45,20.99,-44.68,-0.06,-0.46,-0.52
0.59,0.29,10.27,-18.27,20.26,-45.73,-0.05,-0.46,-0.53
0.33,-0.15,9.99,-18.23,20.13,-45.15,-0.05,-0.41,-0.43
0.57,0.26,9.96,-18.30,19.54,-45.67,-0.04,-0.39,-0.22
0.53,0.29,10.12,-18.31,19.80,-45.29,-0.05,-0.40,-0.29
0.17,0.06,9.96,-17.90,19.29,-45.45,-0.05,-0.44,-0.47
0.32,0.03,10.18,-18.21,18.94,-45.13,-0.06,-0.41,-0.43
0.51,0.30,9.95,-18.47,18.80,-45.38,-0.05,-0.40,-0.49
0.73,-1.83,10.02,-18.44,18.15,-45.31,-0.05,-0.42,-0.43
0.35,0.34,9.99,-18.94,18.21,-45.32,-0.04,-0.38,-0.34
0.55,0.22,10.34,-18.47,17.44,-45.41,-0.04,-0.41,-0.32
0.52,0.01,9.75,-19.13,17.57,-45.40,-0.01,-0.36,-0.11
0.50,0.05,9.78,-18.53,17.74,-44.49,-0.04,-0.40,-0.16
0.55,0.06,9.94,-18.84,18.05,-44.65,-0.04,-0.41,-0.31
0.65,0.06,10.01,-18.75,17.48,-44.55,-0.04,-0.39,-0.27
0.22,0.28,10.06,-18.84,17.52,-44.87,-0.04,-0.40,-0.17
0.55,0.29,10.09,-19.23,17.09,-45.44,-0.02,-0.37,-0.13
0.29,0.10,10.01,-19.35,16.59,-45.45,-0.03,-0.41,-0.28
0.21,-0.09,9.94,-18.97,16.38,-45.64,-0.02,-0.39,-0.13
0.47,0.17,9.99,-19.04,16.90,-44.78,-0.03,-0.38,-0.13
0.60,-0.11,10.32,-18.90,15.83,-44.83,-0.03,-0.46,-0.35
0.34,0.27,9.81,-18.88,15.81,-44.77,-0.04,-0.41,-0.49
-0.07,0.09,10.34,-19.09,15.80,-45.28,-0.04,-0.35,-0.20
0.54,0.09,9.99,-19.32,15.48,-44.48,-0.04,-0.38,-0.24
0.40,0.20,9.99,-19.10,15.40,-44.45,-0.03,-0.33,-0.07
0.52,0.03,10.04,-19.19,15.19,-44.75,-0.03,-0.37,-0.34
0.55,0.12,9.79,-19.39,14.88,-48.33,-0.04,-0.37,-0.25
0.13,0.31,10.06,-19.41,14.73,-44.93,-0.05,-0.37,-0.27
1.10,0.00,10.26,-18.97,14.70,-45.09,-0.04,-0.40,-0.27
0.83,0.03,9.96,-19.04,13.94,-44.64,-0.04,-0.37,-0.38
0.04,0.17,10.14,-18.93,13.75,-44.81,-0.04,-0.38,-0.33
0.34,-0.07,9.99,-19.23,13.56,-45.07,-0.05,-0.43,-0.36
0.09,0.46,10.05,-19.16,13.55,-45.06,-0.05,-0.38,-0.41
0.65,0.04,9.84,-18.91,13.21,-44.55,-0.05,-0.41,-0.51
-0.01,-0.29,9.78,-18.59,12.69,-44.45,-0.05,-0.42,-0.54
0.28,0.11,10.08,-19.07,12.26,-45.48,-0.04,-0.40,-0.42
0.14,0.22,9.99,-19.32,12.19,-45.16,-0.05,-0.40,-0.48
0.42,0.09,10.03,-19.41,11.18,-45.06,-0.02,-0.26,-0.06
0.64,-0.04,9.83,-18.90,10.83,-45.21,-0.02,-0.32,-0.16
0.39,0.43,10.01,-18.62,10.70,-45.19,-0.03,-0.37,-0.21
0.56,0.09,10.12,-18.91,10.84,-45.92,-0.05,-0.43,-0.31
0.55,0.24,10.11,-18.77,10.22,-44.91,-0.02,-0.35,-0.17
0.52,0.01,9.92,-18.90,11.22,-44.75,-0.03,-0.38,-0.26
0.51,0.11,9.99,-18.08,10.60,-45.15,-0.05,-0.41,-0.29
0.23,0.27,10.01,-19.25,10.04,-45.12,-0.05,-0.45,-0.37
0.52,0.12,10.06,-18.74,9.82,-44.86,-0.06,-0.43,-0.40
0.71,-0.06,10.03,-18.84,9.49,-44.56,-0.05,-0.41,-0.31
0.45,0.19,10.06,-18.71,9.31,-44.69,-0.05,-0.43,-0.27
0.35,0.03,9.95,-18.61,8.64,-44.34,-0.06,-0.43,-0.33
0.35,-0.24,10.06,-19.03,8.27,-43.55,-0.06,-0.45,-0.34
0.37,0.20,10.13,-18.61,8.24,-44.50,-0.03,-0.43,-0.24
0.34,0.38,10.01,-18.42,8.14,-45.19,-0.02,-0.43,-0.18
0.39,0.22,10.04,-18.56,8.13,-45.09,-0.01,-0.40,-0.13
0.37,0.07,10.21,-18.53,8.35,-45.83,-0.02,-0.37,0.03
0.71,0.09,10.04,-18.80,7.79,-44.67,-0.01,-0.39,-0.08
0.43,0.22,10.01,-18.52,7.83,-44.94,-0.03,-0.40,-0.07
0.52,0.06,9.92,-19.01,7.78,-45.34,-0.04,-0.44,-0.24
0.57,0.17,9.89,-18.72,7.66,-44.30,-0.04,-0.42,-0.23
0.06,-0.07,9.95,-18.91,7.51,-44.61,-0.04,-0.40,-0.17
1.06,0.10,10.14,-18.58,7.09,-45.02,-0.05,-0.40,-0.23
0.49,-0.14,10.11,-18.97,7.23,-44.27,-0.05,-0.43,-0.28
0.59,-1.76,9.98,-19.07,6.80,-45.85,-0.04,-0.40,-0.29
-0.01,0.04,10.15,-18.72,6.20,-45.64,-0.06,-0.43,-0.41
0.46,1.80,9.95,-18.65,6.36,-44.49,-0.04,-0.38,-0.25
0.77,0.29,9.91,-18.46,6.31,-44.96,-0.06,-0.40,-0.46
0.27,-0.04,9.99,-18.49,5.28,-45.21,-0.06,-0.43,-0.57
0.25,0.04,10.16,-17.98,5.71,-45.15,-0.03,-0.41,-0.32
0.27,-0.01,10.11,-18.27,5.41,-44.81,-0.05,-0.39,-0.32
0.16,-0.04,9.97,-18.25,5.13,-45.50,-0.03,-0.37,-0.14
0.24,0.09,10.07,-17.96,5.03,-45.44,-0.03,-0.35,-0.00
0.40,0.14,10.09,-17.67,5.33,-45.98,-0.02,-0.34,0.05
0.93,0.52,10.12,-17.67,5.00,-45.53,-0.03,-0.44,-0.31
0.79,0.39,10.06,-17.95,4.41,-45.60,-0.04,-0.48,-0.54
0.18,-0.51,9.96,-17.79,4.05,-46.11,-0.05,-0.49,-0.45
-0.01,-0.07,10.09,-17.25,3.95,-45.57,-0.03,-0.40,-0.19
0.57,-0.13,10.09,-18.11,3.71,-44.93,-0.03,-0.34,-0.08
0.50,0.17,10.06,-17.19,3.71,-44.83,-0.04,-0.35,-0.08
0.76,0.33,9.93,-17.55,3.60,-45.22,-0.04,-0.43,-0.15
0.46,0.06,10.00,-17.79,3.36,-44.93,-0.06,-0.48,-0.27
0.26,0.12,10.19,-17.64,3.29,-45.29,-0.05,-0.43,-0.25
0.13,-0.01,10.07,-17.73,3.24,-44.65,-0.03,-0.45,-0.27
0.35,0.14,9.96,-17.76,3.17,-44.23,-0.03,-0.46,-0.24
0.22,0.00,9.99,-17.83,2.97,-44.64,-0.03,-0.39,-0.16
0.37,-0.06,10.10,-17.41,3.03,-44.99,-0.04,-0.40,-0.16
0.32,0.02,10.03,-17.47,2.32,-45.29,-0.03,-0.39,-0.12
0.66,0.36,10.09,-17.04,2.53,-44.71,-0.04,-0.26,-0.16
0.36,0.22,9.97,-16.98,2.03,-44.45,-0.04,-0.38,-0.66
0.02,0.06,10.14,-16.41,1.32,-44.91,-0.04,-0.37,-0.49
0.14,-0.06,9.98,-16.09,1.62,-44.71,-0.03,-0.35,-0.31
0.09,0.05,10.13,-16.41,1.34,-44.48,-0.03,-0.35,-0.12
0.27,0.02,10.12,-16.79,1.21,-44.74,-0.02,-0.37,-0.05
0.47,0.21,10.10,-16.78,1.14,-44.78,-0.03,-0.41,-0.06
0.33,0.29,10.04,-16.34,1.42,-45.15,-0.02,-0.44,-0.07
0.34,0.04,10.05,-16.92,1.23,-45.31,-0.02,-0.47,-0.24
0.45,0.05,10.16,-16.65,1.04,-45.51,-0.01,-0.43,-0.21
0.55,0.21,9.92,-16.34,0.45,-44.71,-0.02,-0.41,-0.28
0.18,-0.01,10.06,-16.44,0.51,-45.64,-0.02,-0.43,-0.32
0.29,-0.04,10.18,-16.30,0.03,-45.31,-0.04,-0.41,-0.28
0.16,0.02,10.09,-15.89,0.04,-44.99,-0.05,-0.42,-0.28
0.73,0.01,10.23,-15.89,-0.18,-44.90,-0.05,-0.41,-0.35
0.45,0.09,9.83,-15.78,-0.80,-44.69,-0.06,-0.41,-0.43
0.32,0.06,10.13,-16.11,-1.20,-44.65,-0.06,-0.38,-0.36
0.54,0.09,10.22,-15.14,-1.58,-44.87,-0.06,-0.37,-0.39
0.42,0.18,10.24,-15.57,-1.61,-44.97,-0.06,-0.38,-0.35
0.33,0.22,10.04,-15.42,-1.46,-44.39,-0.04,-0.35,-0.26
0.58,0.04,10.23,-15.24,-1.86,-44.84,-0.04,-0.39,-0.46
0.47,0.45,9.88,-15.49,-1.32,-44.75,-0.03,-0.45,-0.50
0.29,-0.03,9.79,-15.16,-1.83,-45.06,-0.04,-0.41,-0.39
0.83,0.17,10.06,-15.46,-2.21,-44.68,-0.03,-0.42,-0.32
0.43,-0.01,10.01,-14.85,-2.75,-45.05,-0.04,-0.45,-0.30
0.38,0.22,10.07,-14.34,-2.85,-45.34,-0.04,-0.37,-0.25
0.71,0.20,10.03,-14.67,-2.66,-45.07,-0.05,-0.38,-0.41
0.41,0.11,9.81,-14.60,-2.98,-45.50,-0.08,-0.41,-0.50
0.14,-0.04,10.11,-14.60,-3.42,-45.62,-0.06,-0.40,-0.38
0.52,0.08,9.96,-14.50,-3.93,-44.42,-0.05,-0.41,-0.32
0.58,-0.01,10.08,-14.22,-3.99,-45.31,-0.05,-0.47,-0.35
0.06,0.01,9.96,-13.91,-4.08,-44.59,-0.03,-0.46,-0.22
0.31,0.17,10.11,-13.43,-4.14,-44.20,-0.03,-0.39,-0.13
0.48,0.12,9.92,-13.53,-4.08,-44.55,-0.03,-0.46,-0.22
0.37,0.04,10.29,-13.53,-4.85,-44.77,-0.05,-0.57,-0.28
0.39,0.06,10.12,-13.72,-4.55,-43.63,-0.03,-0.53,-0.26
0.12,0.06,10.16,-13.77,-4.93,-44.23,-0.05,-0.56,-0.40
0.03,0.09,10.11,-14.19,-4.91,-44.90,-0.05,-0.51,-0.48
0.28,-0.05,9.96,-14.35,-4.84,-45.31,-0.03,-0.43,-0.53
0.17,-0.04,10.14,-13.52,-5.45,-44.90,-0.07,-0.52,-0.77
-0.52,-0.02,10.41,-13.80,-5.99,-44.64,-0.06,-0.43,-0.62
0.19,-0.14,9.95,-13.05,-6.45,-44.87,-0.05,-0.36,-0.26
-0.05,0.06,10.18,-13.18,-5.92,-44.77,-0.05,-0.38,-0.22
-0.02,0.03,10.01,-12.74,-6.64,-45.05,-0.04,-0.35,0.03
0.17,0.23,10.24,-12.88,-6.46,-44.75,-0.02,-0.38,0.07
0.01,0.27,10.06,-13.01,-6.27,-44.26,0.00,-0.49,0.06
0.02,0.00,9.83,-12.93,-6.08,-44.78,-0.01,-0.37,0.06
0.09,0.05,10.21,-13.21,-6.30,-44.77,-0.02,-0.36,0.06
-2.13,0.30,10.42,-13.02,-5.86,-44.87,0.10,1.10,0.06
5.25,-2.96,9.61,-9.98,-5.88,-44.86,-0.05,-0.56,0.13
1.49,3.81,9.92,-10.48,-6.18,-45.66,0.06,0.53,0.09
0.88,-0.51,10.34,-10.45,-6.12,-45.73,0.03,-0.47,0.05
1.26,0.63,9.45,-10.03,-6.27,-45.29,-0.05,-0.40,0.07
0.57,0.09,10.05,-10.54,-5.85,-45.86,-0.01,-0.40,0.06
0.68,-0.14,10.21,-10.57,-6.15,-46.07,-0.01,-0.38,0.05
0.90,0.12,10.09,-10.55,-6.65,-45.16,-0.02,-0.42,0.06
0.46,0.09,9.84,-10.39,-6.15,-45.22,-0.01,-0.40,0.06
0.73,-0.04,10.21,-10.46,-6.33,-45.40,-0.02,-0.39,0.06
0.58,0.02,10.01,-10.46,-5.93,-45.85,-0.02,-0.40,0.06
0.57,-0.02,10.00,-10.32,-5.90,-45.32,-0.02,-0.39,0.05
0.82,0.04,10.11,-10.52,-6.34,-46.24,-0.02,-0.40,0.06
0.53,0.02,9.89,-10.20,-5.85,-45.67,-0.01,-0.40,0.06
0.69,-0.01,10.14,-10.35,-6.33,-45.48,-0.02,-0.39,0.05
0.73,0.04,10.05,-10.20,-6.39,-45.22,-0.01,-0.40,0.06
0.66,0.04,9.98,-10.46,-6.36,-45.03,-0.01,-0.39,0.05
0.65,-0.04,10.11,-10.60,-6.50,-45.70,-0.02,-0.39,0.06
0.61,0.01,10.11,-10.76,-6.02,-45.66,-0.02,-0.39,0.06
0.62,0.02,10.10,-10.89,-6.20,-45.29,-0.02,-0.40,0.06
1.03,-0.02,8.94,-10.46,-6.23,-45.02,-0.04,-0.47,0.06
0.70,-0.31,10.44,-10.73,-6.75,-45.16,-0.03,-0.54,0.05
0.43,0.73,10.10,-10.46,-6.36,-45.37,-0.03,-0.48,-0.10
0.54,0.09,9.99,-10.23,-6.46,-45.45,-0.02,-0.18,-0.22
0.73,-0.34,9.63,-10.33,-6.75,-45.54,-0.04,-0.43,-0.20
0.90,0.01,10.64,-9.81,-6.88,-45.15,-0.06,-0.55,-0.32
0.50,-0.35,9.76,-10.13,-7.23,-45.25,-0.07,-0.49,-0.57
0.60,-0.29,10.22,-9.50,-6.87,-45.32,-0.08,-0.39,-0.44
0.56,-0.03,10.09,-8.86,-7.57,-44.55,-0.09,-0.34,-0.29
0.67,0.03,9.86,-9.06,-7.21,-45.21,-0.04,-0.32,-0.15
0.70,0.28,10.23,-8.43,-7.88,-45.29,-0.03,-0.37,-0.14
0.64,0.52,9.99,-8.46,-7.76,-45.28,-0.03,-0.40,-0.28
0.88,0.09,10.00,-8.33,-7.98,-44.86,-0.05,-0.39,-0.34
0.69,-0.16,10.10,-7.54,-8.26,-45.02,-0.03,-0.39,-0.21
0.46,-0.07,10.04,-8.26,-7.97,-45.07,-0.04,-0.42,-0.19
0.55,0.15,9.93,-8.18,-8.62,-44.91,-0.05,-0.45,-0.24
0.60,0.15,9.88,-7.47,-8.58,-45.32,-0.05,-0.44,-0.26
0.48,0.14,10.01,-7.88,-8.23,-45.40,-0.03,-0.43,-0.35
0.62,0.06,9.74,-7.75,-8.42,-45.15,-0.04,-0.44,-0.45
0.47,0.04,9.83,-7.02,-8.35,-45.09,-0.05,-0.42,-0.40
0.57,-0.17,10.14,-7.04,-8.70,-45.22,-0.04,-0.43,-0.32
0.44,0.11,10.19,-6.68,-9.13,-45.25,-0.04,-0.43,-0.42
0.56,0.01,10.11,-7.19,-9.43,-44.93,-0.04,-0.48,-0.46
0.70,-0.14,10.06,-6.30,-9.11,-45.18,-0.04,-0.44,-0.23
0.47,0.01,10.11,-6.62,-9.15,-44.99,-0.02,-0.36,0.01
0.55,-0.02,10.04,-6.85,-9.12,-45.19,-0.02,-0.37,-0.06
0.46,0.09,9.93,-6.85,-8.96,-45.07,-0.04,-0.40,-0.12
0.50,0.19,9.98,-6.43,-9.46,-44.53,-0.03,-0.36,-0.09
0.57,-0.11,10.10,-5.80,-9.15,-44.84,-0.05,-0.33,-0.20
0.38,0.16,9.99,-6.01,-9.19,-44.53,-0.05,-0.33,-0.25
0.67,-0.03,10.09,-5.28,-9.46,-44.27,-0.08,-0.32,-0.28
0.76,-0.09,10.04,-5.50,-10.08,-45.24,-0.06,-0.35,-0.32
0.57,0.05,9.96,-5.23,-9.56,-44.50,-0.08,-0.43,-0.39
0.42,0.03,9.99,-4.93,-10.13,-45.09,-0.05,-0.51,-0.60
0.67,0.19,10.08,-4.38,-9.87,-45.40,-0.06,-0.52,-0.63
0.32,-0.08,10.24,-4.40,-10.23,-45.34,-0.07,-0.47,-0.49
0.53,0.07,9.90,-3.92,-10.07,-45.73,-0.04,-0.43,-0.32
0.47,-0.04,10.10,-4.19,-10.39,-44.97,-0.04,-0.42,-0.39
0.64,0.04,9.97,-3.60,-10.98,-44.97,-0.04,-0.34,-0.21
0.51,-0.05,9.91,-3.42,-10.64,-45.35,-0.02,-0.43,-0.03
0.44,0.01,10.17,-3.24,-11.02,-45.60,-0.01,-0.56,0.01
0.50,0.00,9.86,-3.19,-11.06,-44.39,-0.01,-0.45,0.05
0.47,0.08,9.96,-3.27,-10.64,-44.74,-0.02,-0.46,0.07
0.48,-0.06,10.27,-2.98,-10.29,-45.56,-0.02,-0.45,0.05
0.42,0.09,10.17,-3.11,-10.60,-45.25,-0.01,-0.44,-0.09
0.21,-0.35,9.72,-3.17,-10.65,-44.23,-0.05,-0.66,-0.67
0.66,0.29,10.26,-2.89,-10.64,-44.07,-0.10,-0.64,-0.62
0.37,-0.07,10.13,-3.08,-10.84,-44.49,-0.02,-0.38,-0.11
0.19,0.14,10.02,-2.92,-11.06,-44.62,-0.03,-0.40,-0.12
0.27,0.06,9.99,-3.01,-10.99,-45.28,-0.04,-0.46,-0.30
0.07,0.00,9.93,-2.66,-11.02,-45.25,-0.02,-0.43,-0.32
0.46,0.11,10.16,-2.54,-11.02,-45.34,-0.01,-0.34,-0.08
0.47,-0.06,10.24,-2.27,-11.43,-44.78,0.02,-0.35,0.08
0.12,-0.06,9.88,-2.37,-11.28,-44.84,0.02,-0.34,0.06
0.03,-0.02,9.98,-2.05,-11.33,-45.24,0.03,-0.02,0.05
0.19,-0.04,10.29,-1.64,-11.41,-44.69,0.02,0.18,0.06
2.56,0.93,9.07,-0.80,-11.84,-44.53,-0.10,0.07,0.07
0.21,-0.22,10.61,-1.04,-11.59,-45.02,0.07,-0.55,0.06
0.85,1.82,10.04,-0.56,-11.50,-44.93,-0.07,-0.19,0.06
0.83,0.24,9.56,-0.75,-11.52,-44.46,-0.03,-0.40,0.06
0.52,0.12,9.98,-0.48,-11.97,-44.88,-0.00,-0.47,0.06
0.72,-0.03,9.94,-0.50,-12.04,-44.88,-0.02,-0.37,0.06
0.59,-0.01,10.04,-0.28,-11.56,-44.64,-0.00,-0.42,0.06
0.60,-0.07,10.14,-1.33,-11.28,-44.97,-0.01,-0.39,0.05
0.61,-0.04,10.14,-0.60,-12.12,-44.90,-0.02,-0.39,0.06
0.52,-0.11,10.11,-0.56,-12.29,-45.31,-0.02,-0.39,0.06
0.61,0.09,9.94,-0.80,-11.66,-44.91,-0.02,-0.39,0.06
0.66,0.12,10.02,-0.18,-11.94,-45.57,-0.02,-0.40,0.06
0.60,-0.03,10.14,-0.54,-11.91,-44.90,-0.01,-0.39,0.06
0.60,0.06,10.06,-0.31,-11.79,-45.59,-0.02,-0.40,0.06
0.62,-0.03,9.98,-0.45,-11.62,-44.81,-0.01,-0.41,0.06
0.67,-0.06,10.00,-1.01,-11.91,-44.24,-0.02,-0.38,0.06
0.60,-0.01,9.96,-0.83,-11.63,-44.93,-0.01,-0.41,0.06
0.61,-0.01,10.06,-0.58,-11.25,-45.32,-0.02,-0.38,0.06
0.62,0.00,10.00,-0.86,-11.30,-44.42,-0.02,-0.40,0.06
0.61,-0.01,9.96,-0.18,-11.30,-45.03,-0.02,-0.39,0.06
0.57,0.01,10.07,-0.16,-11.46,-45.09,-0.01,-0.39,0.06
0.64,-0.01,10.01,-0.64,-11.21,-45.10,-0.01,-0.39,0.06
0.59,0.00,10.08,-0.56,-11.39,-44.11,-0.02,-0.40,0.06
0.60,-0.04,10.05,0.34,-10.93,-44.81,-0.02,-0.39,0.06
0.59,-0.03,10.01,0.07,-10.92,-43.99,-0.02,-0.40,0.06
0.68,-0.01,10.04,-0.37,-11.30,-44.40,-0.02,-0.39,0.06
0.58,1.80,10.07,-0.31,-11.41,-45.19,-0.02,-0.39,0.06
0.57,0.08,9.96,-0.38,-11.90,-44.48,-0.02,-0.39,0.06
0.70,0.04,10.01,-0.22,-11.33,-44.65,-0.02,-0.39,0.06
0.65,-0.04,10.04,-0.61,-11.39,-44.69,-0.02,-0.40,0.06
0.60,-0.07,10.08,-0.53,-11.77,-44.58,-0.02,-0.39,0.06
0.65,-0.03,9.61,-0.20,-11.75,-44.40,-0.06,-0.30,0.06
0.75,0.08,10.45,-0.48,-11.49,-45.60,-0.06,-0.38,0.06
0.90,0.16,9.82,-0.22,-11.90,-45.02,-0.03,-0.44,-0.11
0.45,0.22,9.90,-0.39,-11.28,-45.62,-0.02,-0.48,-0.26
0.90,0.60,10.44,-0.10,-12.10,-44.97,-0.05,-0.47,-0.41
0.34,0.39,10.15,0.25,-11.90,-45.45,-0.10,-0.30,-0.47
0.18,-0.38,9.30,0.53,-11.74,-45.44,-0.08,-0.41,-0.52
0.23,0.12,9.70,1.10,-12.03,-45.76,-0.13,-0.36,-0.73
0.71,0.72,10.20,1.46,-12.10,-45.32,-0.14,-0.30,-0.76
0.12,-0.53,10.23,2.13,-12.07,-45.12,-0.10,-0.41,-0.72
0.12,-0.18,10.76,2.44,-12.44,-45.21,-0.06,-0.40,-0.58
0.31,-0.47,10.09,3.16,-11.97,-45.10,-0.04,-0.44,-0.15
0.45,0.00,10.09,3.41,-12.66,-44.86,-0.02,-0.40,0.06
0.57,-0.02,10.04,3.60,-12.82,-44.80,-0.02,-0.42,0.03
0.13,-0.02,10.09,3.80,-12.86,-44.17,-0.04,-0.38,-0.11
0.85,-0.06,10.34,3.29,-12.57,-44.61,-0.03,-0.47,-0.18
0.37,-1.70,10.55,3.65,-12.61,-43.85,-0.05,-0.42,-0.26
0.66,-0.28,10.08,4.00,-12.64,-44.55,-0.04,-0.40,-0.27
1.19,-0.63,10.08,3.99,-12.45,-43.88,-0.02,-0.45,-0.30
0.53,0.31,10.21,4.28,-12.32,-44.61,-0.04,-0.35,-0.21
1.03,-0.42,9.70,4.03,-12.79,-45.03,-0.02,-0.46,-0.16
0.34,-0.06,9.93,5.13,-12.20,-44.96,-0.04,-0.40,-0.09
0.95,-0.06,10.14,5.01,-12.23,-43.96,-0.02,-0.39,0.01
0.59,0.02,10.11,4.40,-12.93,-43.96,-0.02,-0.38,0.06
0.80,-0.01,9.86,5.04,-12.66,-44.26,-0.02,-0.40,0.03
0.87,-0.01,9.91,4.95,-12.91,-42.81,-0.02,-0.40,0.04
0.63,0.04,9.99,4.55,-12.85,-43.54,-0.01,-0.40,0.05
0.70,0.01,9.95,4.79,-12.77,-43.69,-0.02,-0.40,0.05
0.60,0.08,9.95,5.12,-12.50,-43.96,-0.02,-0.40,0.05
0.37,0.08,10.07,4.66,-12.70,-44.75,-0.03,-0.44,-0.09
-0.15,-0.18,10.68,5.19,-12.77,-44.27,-0.06,-0.38,-0.37
0.60,-0.40,10.01,5.69,-12.80,-44.50,-0.00,-0.38,-0.15
0.45,-0.06,10.40,5.79,-12.76,-45.12,-0.04,-0.39,-0.16
0.84,-0.54,9.70,5.88,-13.12,-44.43,-0.03,-0.39,-0.22
0.45,0.37,10.55,5.51,-12.76,-44.61,-0.04,-0.43,-0.16
0.38,0.47,10.60,5.77,-12.69,-44.24,-0.03,-0.37,-0.19
0.64,0.12,10.19,6.04,-12.83,-43.98,-0.03,-0.39,-0.17
0.55,0.17,10.05,6.33,-13.01,-44.05,-0.02,-0.39,-0.07
0.70,-0.11,10.22,6.40,-12.77,-43.69,-0.02,-0.39,-0.08
0.46,-0.17,9.93,6.34,-12.79,-44.12,-0.02,-0.39,0.01
0.59,0.01,9.91,6.14,-12.48,-43.47,-0.02,-0.40,0.02
0.66,0.01,9.86,6.49,-12.45,-44.10,-0.04,-0.37,-0.08
0.64,-0.03,9.91,6.30,-13.01,-43.96,-0.04,-0.36,-0.05
0.14,0.05,10.20,6.85,-12.58,-44.53,-0.04,-0.40,-0.03
0.34,0.01,10.18,6.75,-12.67,-44.11,-0.02,-0.37,-0.01
0.45,0.04,9.99,6.91,-12.70,-43.57,-0.02,-0.39,0.02
0.62,0.03,10.12,6.55,-12.72,-43.45,-0.02,-0.40,0.06
0.53,-0.05,10.05,6.88,-12.55,-43.63,-0.01,-0.41,0.06
0.50,-0.04,10.19,6.65,-12.50,-43.67,-0.02,-0.41,0.05
0.73,0.15,9.64,6.46,-12.70,-43.83,-0.03,-0.44,-0.01
0.55,0.22,9.88,6.65,-13.23,-44.46,-0.03,-0.41,-0.09
0.33,-0.06,9.81,6.91,-13.02,-43.09,-0.07,-0.41,-0.31
0.37,0.18,10.32,6.93,-13.08,-43.34,-0.10,-0.51,-0.65
0.48,0.34,9.98,7.31,-12.64,-44.08,-0.11,-0.39,-0.86
0.42,-0.73,10.13,7.83,-12.66,-44.12,-0.08,-0.46,-0.77
0.51,0.38,9.29,8.65,-12.53,-43.63,-0.08,-0.48,-0.67
0.34,0.05,9.84,9.18,-12.79,-43.70,-0.12,-0.47,-0.69
0.45,-0.29,10.49,9.60,-12.72,-43.74,-0.06,-0.44,-0.57
-0.05,0.19,10.34,10.06,-12.53,-43.12,-0.07,-0.49,-0.61
0.64,0.15,9.86,10.58,-12.15,-42.69,-0.07,-0.44,-0.51
0.31,-0.27,10.05,10.83,-12.19,-43.53,-0.05,-0.38,-0.38
0.46,0.03,10.06,10.96,-12.44,-43.64,-0.03,-0.47,-0.31
0.49,-0.03,10.20,10.96,-11.96,-43.79,-0.03,-0.46,-0.37
0.62,0.06,10.20,11.56,-11.66,-43.20,-0.02,-0.35,-0.38
0.52,0.05,9.86,11.56,-11.71,-43.19,-0.06,-0.38,-0.25
0.66,0.13,10.08,11.91,-11.98,-44.17,-0.05,-0.34,-0.09
0.58,0.03,10.12,11.96,-12.22,-44.10,-0.04,-0.37,0.00
0.54,0.03,10.17,12.26,-11.28,-43.61,-0.03,-0.38,0.01
0.78,-0.22,9.86,12.19,-11.97,-43.77,-0.05,-0.39,-0.17
0.43,-0.13,9.95,12.32,-12.22,-43.00,-0.08,-0.38,-0.21
0.47,-0.16,9.89,12.82,-11.59,-43.41,-0.06,-0.37,-0.11
0.39,0.18,9.86,12.60,-12.10,-43.77,-0.06,-0.28,-0.07
0.59,1.80,9.68,12.83,-12.09,-43.54,-0.02,-0.39,-0.09
0.53,-0.01,10.18,13.17,-11.72,-43.61,-0.02,-0.40,0.06
0.47,0.13,10.14,12.96,-11.52,-43.98,-0.03,-0.41,-0.01
0.76,0.07,10.18,12.83,-11.43,-43.34,-0.03,-0.40,-0.05
0.47,0.32,10.11,13.50,-11.50,-43.04,-0.05,-0.45,-0.17
0.45,0.02,10.02,13.69,-11.81,-43.07,-0.01,-0.36,-0.30
0.83,-0.21,9.83,13.94,-11.46,-43.55,-0.01,-0.38,-0.35
0.21,-0.06,10.09,13.46,-11.02,-43.51,-0.04,-0.41,-0.32
0.27,0.60,10.09,13.71,-11.03,-43.42,-0.07,-0.40,-0.39
0.25,0.50,10.60,15.11,-10.73,-43.83,-0.08,-0.40,-0.32
0.37,0.11,10.33,15.00,-10.46,-43.10,-0.06,-0.42,-0.26
0.68,0.14,9.63,15.24,-10.52,-43.70,-0.06,-0.40,-0.11
0.54,0.12,10.14,15.74,-10.68,-43.47,-0.04,-0.39,-0.10
0.68,0.06,9.93,15.32,-10.87,-43.89,-0.04,-0.37,-0.14
0.68,0.24,10.02,15.77,-10.58,-43.54,-0.04,-0.38,-0.10
0.79,0.04,9.88,15.86,-10.76,-43.70,-0.02,-0.39,-0.02
0.50,-0.02,10.05,15.61,-10.89,-43.57,-0.02,-0.40,0.05
0.50,0.01,10.08,15.51,-10.25,-43.15,-0.02,-0.40,0.05
0.51,0.00,10.08,15.96,-10.64,-43.88,-0.01,-0.41,0.05
0.88,-0.05,10.04,15.77,-10.29,-43.57,-0.02,-0.40,-0.07
0.62,0.14,10.14,15.80,-10.79,-43.31,-0.02,-0.41,0.05
0.45,0.04,9.94,16.19,-10.58,-44.21,-0.02,-0.41,-0.03
0.39,0.07,10.06,16.12,-10.67,-43.95,-0.04,-0.41,-0.03
0.20,-0.35,10.38,16.06,-10.65,-43.73,-0.06,-0.41,-0.37
0.63,-0.02,10.21,16.00,-10.26,-44.26,-0.06,-0.43,-0.44
0.75,-0.43,10.42,16.24,-10.57,-43.74,-0.03,-0.42,-0.32
0.34,0.22,10.04,16.44,-10.39,-44.39,-0.09,-0.45,-0.66
1.17,-0.31,10.19,16.53,-9.78,-43.38,-0.07,-0.48,-0.71
0.62,0.22,9.81,17.17,-9.49,-43.99,-0.06,-0.44,-0.34
0.27,0.09,9.69,17.58,-9.65,-43.57,-0.02,-0.41,-0.15
0.76,-0.03,9.91,16.90,-9.31,-43.26,-0.02,-0.42,-0.23
0.31,0.17,10.10,17.63,-9.28,-44.20,-0.04,-0.42,-0.17
0.39,0.04,9.91,17.71,-9.15,-43.63,-0.03,-0.43,-0.14
0.39,-0.03,10.11,17.60,-9.13,-43.92,-0.05,-0.40,-0.30
0.16,-0.02,10.03,18.37,-9.06,-43.72,-0.09,-0.40,-0.42
0.48,0.47,9.98,18.44,-8.32,-43.95,-0.08,-0.35,-0.60
0.67,-0.24,9.96,18.88,-8.51,-43.92,-0.05,-0.40,-0.54
-0.13,0.06,10.24,19.15,-8.42,-43.74,-0.01,-0.34,-0.23
0.78,-0.14,10.12,19.01,-8.36,-44.23,-0.01,-0.22,-0.10
0.62,0.31,9.71,19.26,-8.27,-44.34,-0.02,-0.36,0.06
0.57,0.09,10.27,19.23,-8.02,-44.04,-0.02,-0.43,0.03
0.58,0.27,10.17,20.11,-7.83,-44.05,-0.04,-0.45,-0.12
0.61,-0.08,10.06,19.54,-7.82,-43.91,-0.02,-0.45,-0.13
-0.15,-0.16,10.13,19.88,-7.50,-44.81,-0.05,-0.43,-0.27
-0.01,-0.04,10.33,19.72,-7.22,-44.24,-0.05,-0.44,-0.33
0.44,-0.11,10.38,20.11,-7.44,-43.92,-0.06,-0.39,-0.51
0.14,-0.31,10.51,20.29,-7.10,-43.80,-0.08,-0.33,-0.59
0.12,1.72,10.11,20.56,-7.00,-44.21,-0.07,-0.41,-0.39
0.54,-0.06,9.22,20.80,-6.75,-42.50,-0.05,-0.36,-0.37
1.03,-0.03,9.99,21.12,-6.78,-43.26,-0.04,-0.34,-0.30
0.66,-0.47,9.44,21.27,-6.49,-43.64,-0.08,-0.36,-0.32
0.39,0.54,9.98,21.16,-6.08,-43.98,-0.13,-0.51,-0.55
0.90,-0.01,9.27,21.57,-5.85,-43.98,-0.07,-0.34,-0.26
0.15,0.38,9.07,21.95,-5.73,-43.92,-0.07,-0.37,-0.23
0.05,0.60,9.96,22.03,-5.90,-43.26,-0.05,-0.44,-0.23
0.18,0.03,10.12,22.49,-5.41,-43.25,-0.05,-0.40,-0.18
0.38,0.33,9.81,22.10,-5.39,-43.93,-0.03,-0.40,-0.25
0.34,-0.29,10.21,22.39,-4.78,-43.60,-0.05,-0.41,-0.25
0.47,0.01,10.09,23.33,-4.47,-43.38,-0.02,-0.42,-0.12
0.45,-0.09,10.21,23.19,-5.19,-44.15,-0.03,-0.42,-0.23
0.47,0.05,10.06,23.09,-4.88,-43.23,-0.03,-0.42,-0.21
0.73,-0.37,10.23,23.28,-4.40,-43.55,-0.05,-0.41,-0.27
0.01,0.35,10.18,23.41,-4.43,-43.15,-0.06,-0.41,-0.41
0.62,0.09,9.78,23.08,-4.38,-42.50,-0.02,-0.41,-0.43
0.40,-0.03,10.09,23.75,-3.71,-44.20,-0.04,-0.45,-0.33
0.48,-0.41,10.88,23.90,-3.14,-42.79,-0.04,-0.45,-0.38
0.37,0.32,9.67,23.62,-3.17,-43.76,-0.04,-0.46,-0.41
0.19,-0.37,10.35,23.97,-2.05,-42.63,-0.09,-0.41,-0.75
0.74,0.07,9.58,24.29,-2.16,-43.76,-0.08,-0.41,-0.69
1.28,-0.14,9.68,24.41,-1.53,-43.09,-0.05,-0.40,-0.48
0.39,0.04,9.93,24.39,-1.32,-43.35,-0.05,-0.38,-0.63
0.63,-0.08,10.43,24.83,-0.51,-43.12,-0.07,-0.39,-0.64
1.00,-1.71,10.31,25.04,3.61,-43.45,-0.04,-0.36,-0.58
0.34,-0.04,10.44,25.48,0.35,-42.81,-0.05,-0.41,-0.44
0.47,0.02,10.11,24.93,0.04,-42.85,-0.04,-0.40,-0.35
0.18,0.31,10.04,25.34,0.41,-43.32,-0.05,-0.42,-0.34
0.60,-0.04,9.98,25.74,0.73,-43.44,-0.05,-0.44,-0.43
0.51,0.46,10.05,25.68,1.18,-43.41,-0.08,-0.40,-0.64
0.31,0.39,10.10,25.94,1.81,-43.31,-0.08,-0.43,-0.64
0.37,0.24,9.50,26.19,2.50,-43.35,-0.07,-0.43,-0.85
0.67,0.36,10.24,26.48,2.89,-43.06,-0.06,-0.44,-0.57
0.09,0.43,10.07,26.31,3.29,-43.13,-0.06,-0.49,-0.50
-0.28,0.64,10.59,26.54,3.17,-43.70,-0.08,-0.39,-0.78
0.42,-0.51,10.12,26.97,3.79,-43.15,-0.07,-0.41,-0.81
1.17,-0.05,10.27,26.53,4.63,-42.81,-0.04,-0.39,-0.52
0.46,-1.79,10.06,27.08,5.13,-43.06,-0.04,-0.40,-0.36
0.51,-0.09,10.01,27.13,5.54,-42.72,-0.03,-0.40,-0.27
0.33,-1.77,10.15,27.27,5.33,-42.72,-0.03,-0.41,-0.20
0.19,0.12,10.09,27.39,6.05,-43.63,-0.04,-0.40,-0.33
-0.01,0.21,9.95,26.82,6.15,-43.03,-0.06,-0.41,-0.50
0.88,0.02,9.61,26.72,6.96,-43.12,-0.06,-0.41,-0.59
0.24,0.30,10.16,26.70,7.03,-43.13,-0.07,-0.40,-0.51
-1.76,0.10,10.12,27.05,7.66,-42.97,-0.08,-0.39,-0.62
0.01,0.26,10.19,27.17,7.82,-42.68,-0.07,-0.42,-0.73
-0.05,-0.11,9.38,27.16,8.52,-42.79,-0.08,-0.39,-0.95
-0.03,0.00,10.34,27.58,8.93,-43.19,-0.05,-0.38,-0.94
0.11,0.17,10.24,27.27,9.69,-42.96,-0.07,-0.36,-0.86
0.77,-0.06,10.04,27.36,9.98,-43.23,-0.04,-0.39,-0.72
0.69,0.46,10.17,27.89,11.09,-43.22,-0.08,-0.37,-0.53
0.19,-0.04,10.26,27.38,10.93,-43.82,-0.06,-0.43,-0.33
0.57,0.01,10.23,27.36,11.66,-43.67,-0.07,-0.34,-0.53
0.57,0.00,9.90,27.08,12.12,-43.44,-0.06,-0.37,-0.42
0.30,-0.06,10.23,27.10,12.06,-43.09,-0.01,-0.45,-0.20
0.25,-0.01,10.14,27.64,12.51,-43.38,-0.04,-0.40,-0.25
0.10,-0.03,9.92,26.97,12.80,-43.16,-0.04,-0.36,-0.38
0.37,0.76,10.16,26.98,13.56,-42.52,-0.05,-0.38,-0.51
0.66,-0.22,10.07,26.82,13.67,-43.35,-0.04,-0.36,-0.74
0.22,0.27,10.17,27.27,13.88,-43.92,-0.07,-0.43,-0.43
0.42,0.19,9.81,26.98,14.29,-43.85,-0.05,-0.42,-0.63
-0.17,0.48,11.49,26.85,14.50,-43.38,-0.09,-0.40,-0.65
0.01,-0.15,10.93,26.82,15.02,-43.79,-0.08,-0.42,-0.57
0.76,0.27,10.47,26.57,15.24,-43.44,-0.09,-0.41,-0.57
0.90,-0.45,10.01,26.43,15.54,-43.54,-0.03,-0.35,-0.68
0.42,0.02,9.93,26.35,16.43,-42.78,-0.04,-0.45,-0.45
0.29,0.27,9.76,26.34,16.84,-43.67,-0.06,-0.37,-0.46
-0.01,0.33,9.34,25.96,16.72,-44.23,-0.06,-0.39,-0.35
0.79,-0.03,10.07,25.72,17.83,-43.00,-0.04,-0.38,-0.43
-0.03,-0.01,10.20,25.34,17.38,-43.61,-0.07,-0.34,-0.64
0.31,0.15,9.96,25.75,18.49,-43.44,-0.09,-0.38,-0.77
0.22,0.19,10.11,25.37,18.75,-42.84,-0.05,-0.45,-0.47
0.14,0.06,9.90,25.26,19.54,-43.17,-0.06,-0.45,-0.45
0.21,0.23,9.96,25.05,19.76,-42.96,-0.06,-0.38,-0.59
0.39,1.80,10.02,25.31,20.01,-42.88,-0.07,-0.39,-0.52
0.60,-0.02,9.75,24.42,20.89,-43.23,-0.07,-0.40,-0.48
-0.14,0.17,10.52,24.35,20.46,-43.50,-0.07,-0.43,-0.50
0.25,0.03,9.92,24.48,21.65,-42.87,-0.07,-0.42,-0.51
0.62,0.14,9.86,24.42,21.85,-43.72,-0.04,-0.44,-0.47
-0.01,0.17,10.14,23.36,22.10,-43.12,-0.05,-0.43,-0.47
0.21,0.17,10.14,23.93,22.42,-43.73,-0.03,-0.49,-0.46
0.12,0.29,10.04,23.28,22.70,-43.58,-0.03,-0.56,-0.38
0.09,-0.01,10.01,23.05,22.80,-43.69,-0.05,-0.50,-0.43
0.22,-0.01,10.06,22.79,23.19,-43.80,-0.05,-0.53,-0.40
0.19,-0.04,10.15,22.86,23.53,-43.13,-0.05,-0.46,-0.46
-0.24,0.09,10.02,22.48,23.79,-42.79,-0.03,-0.26,-0.64
0.95,-0.05,9.73,22.13,24.19,-44.10,-0.02,-0.41,-0.42
-0.29,0.01,9.45,21.84,25.04,-43.69,0.00,-0.34,-0.45
0.75,-0.08,9.64,21.32,24.98,-43.54,-0.02,-0.29,-0.39
0.07,0.28,10.05,21.29,25.30,-43.70,-0.04,-0.41,-0.48
-0.09,0.41,9.95,20.72,25.93,-44.48,-0.06,-0.41,-0.55
0.02,0.11,10.33,20.33,25.69,-43.69,-0.08,-0.37,-0.52
0.03,0.22,9.85,20.34,25.91,-43.25,-0.07,-0.42,-0.49
0.19,0.04,10.41,20.45,26.66,-43.58,-0.08,-0.33,-0.69
0.03,-0.04,10.09,20.27,27.16,-43.95,-0.10,-0.30,-0.66
0.09,0.10,9.92,19.51,27.38,-43.07,-0.06,-0.33,-0.49
0.19,0.21,9.82,19.76,27.51,-43.38,-0.06,-0.38,-0.35
0.17,0.36,10.09,19.34,27.76,-44.43,-0.04,-0.39,-0.49
0.60,0.01,9.81,19.16,27.77,-43.72,-0.06,-0.30,-0.65
0.43,0.02,10.40,18.65,28.49,-43.15,-0.01,-0.37,-0.32
0.14,0.34,10.11,18.77,28.38,-43.61,-0.01,-0.37,-0.06
0.26,0.25,10.01,18.96,28.68,-43.51,-0.01,-0.33,-0.13
0.40,0.10,10.04,19.20,28.85,-43.80,-0.02,-0.32,-0.11
0.28,0.14,9.94,18.68,29.35,-43.07,-0.03,-0.41,-0.11
0.04,0.09,10.03,18.58,28.68,-43.50,-0.05,-0.41,-0.19
0.42,-1.81,10.00,18.74,29.22,-43.55,-0.07,-0.34,-0.44
0.14,0.25,10.19,18.71,29.13,-43.64,-0.04,-0.44,-0.11
0.06,0.28,10.09,18.28,29.64,-43.22,-0.04,-0.40,-0.06
0.39,0.29,10.13,18.46,29.20,-43.35,-0.04,-0.37,-0.12
0.28,0.27,10.14,18.61,29.48,-43.88,-0.02,-0.43,0.07
0.22,0.24,10.14,18.08,29.48,-43.60,-0.01,-0.42,0.09
0.42,0.22,9.93,18.17,29.55,-43.86,-0.01,-0.41,0.05
0.35,0.27,10.06,18.02,29.83,-43.88,-0.01,-0.39,0.05
0.27,0.05,9.94,18.01,29.93,-44.20,-0.02,-0.43,0.06
0.30,0.09,10.09,18.52,29.17,-44.36,-0.01,-0.43,0.07
0.21,0.14,10.19,18.55,29.92,-43.83,-0.02,-0.35,0.06
-0.47,-0.01,9.77,18.56,29.42,-43.83,0.04,-0.18,0.09
-0.73,0.28,10.23,18.62,29.99,-44.14,-0.06,-0.32,0.08
0.45,0.20,10.01,18.82,29.77,-43.32,-0.03,-0.44,0.06
0.28,0.26,10.33,18.69,29.52,-43.85,-0.02,-0.42,0.06
0.43,-0.01,10.02,19.13,29.86,-44.14,-0.02,-0.43,0.06
0.28,0.09,10.13,19.00,29.33,-43.50,-0.02,-0.42,0.06
0.35,0.25,9.91,19.23,29.96,-43.50,-0.03,-0.41,0.06
1.52,0.17,9.20,19.20,29.33,-42.98,-0.02,-0.39,0.07
-0.51,0.19,10.24,19.32,29.04,-42.59,-0.03,-0.50,0.06
0.02,0.14,10.21,18.52,29.19,-43.58,-0.03,-0.47,0.06
0.01,0.22,10.36,19.10,29.42,-42.84,-0.01,-0.44,0.06
0.22,0.33,10.28,18.52,29.06,-42.68,-0.02,-0.39,0.06
0.14,0.30,10.21,18.99,29.45,-43.03,-0.02,-0.38,0.06
0.22,0.32,10.22,19.03,29.49,-43.17,-0.02,-0.37,0.06
0.30,0.10,10.22,19.38,29.26,-42.74,-0.01,-0.37,0.06
0.32,0.15,10.17,19.76,29.23,-43.13,-0.01,-0.36,0.06
0.38,0.12,9.99,19.23,29.36,-43.29,-0.01,-0.37,0.06
0.45,0.07,9.93,19.38,29.19,-43.48,-0.02,-0.38,0.06
0.39,0.21,9.99,19.19,29.66,-42.78,-0.02,-0.40,0.06
0.39,0.20,9.96,18.85,29.35,-43.34,-0.02,-0.40,0.06
0.42,0.09,9.99,18.88,29.48,-42.81,-0.02,-0.40,0.06
0.45,0.12,10.05,18.85,28.98,-42.81,-0.02,-0.40,0.06
0.45,0.11,9.93,19.16,28.95,-42.74,-0.02,-0.40,0.06
0.25,0.07,10.11,19.32,29.16,-42.90,-0.02,-0.41,0.06
0.34,0.30,10.12,19.29,28.85,-42.39,-0.02,-0.40,0.05
0.48,0.22,10.06,19.37,28.78,-42.75,-0.02,-0.39,0.06
0.42,0.06,10.14,18.96,28.53,-42.58,-0.01,-0.39,0.05
0.34,0.10,9.90,18.68,29.19,-42.36,-0.01,-0.38,0.06
0.39,0.15,10.02,19.12,29.63,-41.65,-0.01,-0.39,0.06
0.37,0.16,9.98,18.62,29.06,-42.87,-0.02,-0.38,0.06
0.33,-0.02,9.92,19.39,29.23,-43.26,-0.02,-0.39,0.06
0.39,0.17,10.02,18.81,28.54,-42.93,-0.02,-0.39,0.06
0.44,0.24,9.99,18.40,28.72,-42.46,-0.02,-0.39,0.05
0.34,0.19,10.12,18.74,28.92,-42.20,-0.02,-0.40,0.06
0.28,0.19,10.10,18.84,29.14,-42.78,-0.02,-0.40,0.06
0.38,0.24,10.06,18.25,29.13,-41.80,-0.02,-0.40,0.06
0.32,0.17,10.00,18.18,29.17,-42.87,-0.02,-0.40,0.06
0.33,0.13,10.01,18.34,29.03,-42.28,-0.02,-0.39,0.06
0.33,0.09,9.85,18.87,29.47,-42.30,-0.02,-0.39,0.06
0.34,0.11,10.04,18.91,29.01,-42.81,-0.01,-0.40,0.06
0.45,0.09,9.99,19.09,29.03,-42.37,-0.02,-0.39,0.05
0.40,0.07,9.96,18.81,28.92,-42.93,-0.01,-0.39,0.06
0.39,0.04,10.09,19.20,28.91,-42.24,-0.02,-0.40,0.06
0.42,0.11,10.11,18.90,29.16,-43.91,-0.01,-0.40,0.06
0.37,0.24,10.14,18.94,28.75,-43.55,-0.02,-0.40,0.06
0.38,0.12,9.89,18.87,28.94,-43.25,-0.02,-0.40,0.07
0.34,0.13,10.18,18.61,28.91,-43.04,-0.02,-0.39,0.06
0.37,0.11,10.04,18.77,29.20,-43.12,-0.02,-0.40,0.06
0.31,0.19,10.04,19.09,28.76,-43.38,-0.02,-0.40,0.06
0.35,0.18,10.06,19.45,28.46,-43.35,-0.02,-0.40,0.06
0.51,0.11,9.94,19.18,28.92,-43.39,-0.01,-0.40,0.06
0.50,0.15,10.09,18.93,28.94,-43.73,-0.03,-0.40,0.06
0.53,0.32,10.41,18.80,29.13,-43.16,-0.02,-0.36,0.03
0.58,0.17,10.31,19.03,29.49,-43.70,-0.01,-0.34,-0.12
-0.44,0.06,10.01,18.81,29.47,-43.38,-0.02,-0.48,-0.18
-0.16,0.06,9.94,18.93,29.25,-43.55,-0.02,-0.40,0.07
0.27,-0.04,10.19,18.42,29.14,-42.47,-0.02,-0.47,0.06
0.32,0.15,9.91,18.74,30.05,-42.77,-0.04,-0.45,0.03
0.51,0.27,10.06,18.81,29.63,-42.78,-0.03,-0.35,-0.11
1.57,0.37,10.19,18.50,29.82,-43.16,-0.02,-0.43,-0.01
-0.11,0.34,10.04,17.89,29.85,-42.31,-0.03,-0.43,-0.05
0.45,0.21,10.09,18.61,29.80,-42.27,-0.02,-0.40,-0.16
0.70,-0.11,9.84,18.25,30.15,-42.75,-0.02,-0.39,-0.07
0.27,0.13,10.07,18.21,30.17,-43.22,-0.02,-0.35,0.06
0.48,0.24,10.00,18.66,30.06,-43.03,-0.03,-0.36,0.06
0.48,0.14,10.00,18.85,30.14,-43.57,-0.01,-0.34,0.06
0.58,0.11,10.02,18.58,29.74,-43.25,-0.01,-0.37,0.04
0.24,0.22,10.11,18.46,30.37,-42.90,-0.02,-0.40,0.04
1.11,-0.28,10.19,18.75,29.77,-43.55,-0.01,-0.30,0.01
0.33,0.04,10.44,18.63,29.86,-42.74,0.00,-0.25,-0.01
1.22,-0.45,9.53,19.37,30.12,-43.77,-0.03,-0.26,-0.08
0.62,-0.07,9.95,19.03,29.95,-43.00,-0.01,-0.32,-0.02
0.50,0.76,10.22,19.38,29.96,-43.55,-0.04,-0.21,-0.11
0.78,-0.09,9.80,19.29,30.33,-42.53,-0.02,-0.21,-0.13
0.67,-0.03,10.02,19.67,30.08,-43.01,-0.02,-0.22,-0.09
0.63,-0.01,10.15,20.08,30.23,-42.52,-0.02,-0.16,-0.05
0.95,0.27,10.14,20.18,30.40,-42.85,-0.02,0.07,-0.11
0.79,-0.06,9.71,21.10,30.61,-41.27,-0.02,-0.10,-0.10
0.93,0.15,10.41,20.72,30.02,-42.05,-0.03,-0.07,-0.08
1.26,0.00,9.94,21.47,30.05,-41.61,-0.02,0.10,-0.11
1.24,0.03,9.91,21.81,29.82,-41.60,-0.01,0.07,-0.03
0.82,0.17,9.88,22.16,29.86,-41.16,-0.01,0.00,0.03
1.75,0.04,9.81,22.96,29.98,-40.65,-0.07,0.19,-0.03
1.96,-0.05,10.20,23.55,29.98,-40.70,-0.06,0.32,-0.08
1.90,-0.04,9.55,24.45,30.08,-39.80,-0.06,0.35,-0.00
2.20,0.32,9.80,25.29,30.20,-39.64,-0.08,0.32,-0.04
2.27,0.34,9.20,26.21,30.09,-38.10,-0.03,0.20,-0.00
2.22,-0.01,9.47,26.75,29.99,-38.40,-0.03,-0.07,0.06
2.89,-0.06,9.53,27.04,29.89,-38.40,0.01,-0.02,0.11
2.71,0.01,9.99,27.77,29.80,-37.59,-0.01,0.03,0.12
3.62,-0.37,9.60,28.21,30.09,-37.75,-0.03,0.10,0.05
2.31,0.47,9.99,28.66,30.05,-36.90,-0.03,0.05,0.00
2.79,0.16,9.94,29.86,29.77,-36.90,-0.05,0.21,-0.05
3.24,-0.14,8.94,30.52,29.42,-36.54,-0.07,0.11,-0.08
4.31,0.46,9.44,30.20,29.90,-36.42,-0.04,0.04,0.31
3.51,-0.22,9.43,31.10,29.64,-35.98,-0.06,0.11,0.00
3.57,-1.78,9.32,31.88,30.43,-35.30,-0.04,0.15,-0.31
4.14,-0.24,9.40,32.48,29.71,-35.14,-0.04,0.01,0.03
3.14,-0.12,9.01,32.72,29.87,-35.36,0.01,0.00,0.14
4.33,0.47,9.78,33.35,29.70,-35.02,-0.02,0.14,0.05
4.47,0.23,8.57,33.98,30.05,-34.17,0.02,0.20,0.11
3.95,0.59,8.36,34.65,29.64,-33.76,0.01,0.08,0.12
5.13,0.34,9.15,34.76,29.63,-33.27,0.04,0.12,0.12
4.35,0.17,9.32,35.25,29.86,-32.34,-0.03,0.14,0.04
4.55,0.25,9.05,36.09,29.57,-31.95,-0.02,0.18,0.05
4.77,0.29,8.95,36.63,29.33,-31.60,-0.05,0.20,-0.00
5.81,0.48,7.39,37.75,29.57,-30.34,-0.10,0.38,-0.05
6.29,0.50,7.98,38.09,29.77,-29.38,-0.07,0.57,-0.07
5.37,-0.08,8.26,38.94,29.82,-28.63,-0.13,0.57,-0.08
5.72,-0.22,7.25,39.61,29.98,-27.61,-0.07,0.37,-0.04
5.90,0.11,7.71,40.15,29.90,-27.00,-0.02,0.06,0.07
6.11,0.24,7.56,40.35,30.14,-27.01,-0.02,-0.08,0.07
6.06,0.29,7.84,40.69,29.99,-26.60,-0.02,-0.19,0.06
5.81,0.37,8.13,40.40,30.18,-26.10,-0.01,-0.08,0.05
6.06,0.18,7.95,41.36,30.12,-25.33,-0.01,0.21,0.05
6.24,0.04,8.15,42.43,30.11,-24.35,-0.01,0.54,0.05
6.60,1.73,7.01,42.88,29.71,-22.92,-0.02,0.79,0.05
6.55,-0.06,7.66,43.93,29.87,-22.41,-0.02,0.83,0.05
7.39,0.10,6.12,45.38,29.49,-20.56,-0.02,1.02,0.06
7.54,0.11,6.14,46.08,29.38,-17.51,-0.02,-0.04,0.06
7.34,0.14,6.62,46.55,29.44,-17.42,-0.02,-0.05,0.06
8.28,0.19,6.68,46.77,29.99,-16.90,-0.03,0.30,0.07
7.72,0.05,6.20,46.83,29.70,-15.62,-0.02,0.49,0.07
7.82,0.66,5.66,48.13,29.44,-14.18,-0.02,0.77,0.05
8.13,0.52,5.41,48.25,29.63,-12.28,-0.02,0.88,0.07
8.13,0.48,5.15,49.04,29.70,-10.71,-0.01,0.90,0.04
8.80,-0.72,2.86,48.83,29.86,-9.51,-0.04,1.10,0.04
9.04,-0.02,3.03,49.44,30.02,-6.27,-0.02,0.66,0.04
8.27,0.70,5.24,49.80,29.83,-5.58,-0.03,0.00,0.15
8.94,0.22,4.39,50.23,30.25,-3.64,-0.03,0.91,0.06
7.62,0.27,2.46,49.62,30.09,-2.57,-0.02,0.71,0.08
8.87,1.23,4.01,50.37,30.36,-0.76,-0.04,0.39,0.04
9.20,0.25,3.59,50.15,30.01,0.25,-0.02,0.78,0.05
9.18,-0.11,2.71,50.00,30.56,2.37,-0.02,0.84,0.04
10.23,-0.21,1.19,49.94,30.56,4.43,-0.02,0.53,0.06
9.49,-0.04,1.74,50.00,30.56,4.75,-0.02,-0.24,0.08
9.20,0.20,2.72,50.16,30.39,5.32,-0.01,-0.24,0.08
9.25,0.45,2.61,49.99,30.69,5.50,-0.02,0.08,0.07
9.38,0.39,2.10,50.03,30.39,6.83,-0.01,0.36,0.05
9.80,0.04,1.26,50.23,30.14,7.76,-0.01,0.39,0.04
9.44,0.00,1.56,50.28,30.20,8.86,-0.02,0.34,0.05
9.15,-0.01,1.33,49.82,30.36,9.85,-0.03,0.49,0.07
9.86,0.07,1.48,49.66,29.92,11.12,-0.02,0.53,0.07
9.76,0.16,0.44,48.90,30.30,12.55,-0.02,0.65,0.07
9.60,0.11,0.39,49.04,30.49,13.86,-0.02,0.62,0.06
9.80,1.26,-1.46,48.03,30.84,16.18,-0.35,1.14,0.07
9.76,1.18,-2.22,47.63,30.61,17.11,-0.27,0.68,0.07
9.02,0.02,-0.12,47.25,31.01,18.44,-0.10,0.30,0.07
10.11,0.03,-1.25,47.03,30.80,19.57,-0.11,0.44,0.08
9.53,0.15,-0.76,46.83,30.99,19.88,-0.02,0.08,0.07
8.76,-0.28,-1.81,46.14,30.91,21.24,-0.13,0.28,0.07
9.78,0.46,-2.34,45.70,31.51,22.19,-0.40,0.44,0.09
9.57,0.45,-1.62,45.06,31.06,22.38,-0.30,0.02,0.01
9.34,-0.15,-1.40,45.13,31.38,22.16,-0.20,0.20,0.00
9.83,-0.78,-1.42,44.75,31.73,23.36,-0.11,-0.01,0.07
9.19,0.06,-2.16,44.26,31.60,23.72,-0.01,0.24,0.00
8.53,-0.04,-2.12,43.69,31.76,24.28,0.03,0.80,-0.12
9.30,-0.37,-2.25,42.25,32.18,26.40,0.19,0.59,-0.14
9.04,0.11,-2.48,41.26,32.29,28.05,0.03,0.29,0.05
8.88,0.04,-2.63,41.04,32.46,28.52,-0.26,0.54,0.12
9.53,0.45,-3.30,40.53,32.70,29.22,-0.35,0.86,0.02
8.86,-0.08,-3.12,39.35,33.37,30.37,-0.32,0.86,-0.06
8.38,-0.25,-3.86,38.00,33.35,31.48,-0.10,0.76,0.02
8.56,0.01,-4.41,36.39,33.72,33.32,0.06,0.40,0.14
9.19,0.10,-4.61,36.03,33.38,33.53,0.04,0.37,-0.10
8.39,-0.67,-4.12,35.43,33.44,34.24,-0.17,0.66,-0.02
7.80,-0.19,-5.57,33.85,33.76,35.71,-0.23,0.45,0.08
8.14,0.21,-5.46,33.00,34.01,36.28,-0.04,0.16,0.12
8.06,-0.04,-5.25,32.84,34.17,36.63,0.13,0.22,0.08
7.97,0.01,-5.43,32.21,34.00,36.79,0.09,0.47,0.04
7.37,-0.19,-6.14,30.87,33.86,38.44,-0.08,0.79,-0.05
6.82,0.06,-6.16,29.06,34.29,38.99,-0.09,0.31,-0.13
7.46,-0.14,-6.16,28.18,34.13,39.68,0.02,0.42,-0.11
8.87,-0.36,-5.74,27.33,34.80,39.97,-0.01,0.45,-0.08
8.31,-0.44,-5.86,26.53,35.44,40.21,-0.03,0.34,-0.02
6.02,-0.42,-6.41,24.50,34.81,41.00,-0.01,0.31,0.05
7.19,-0.22,-6.52,23.62,35.11,41.44,-0.07,0.19,0.16
6.52,-0.37,-6.65,23.21,35.30,41.93,-0.07,0.27,0.14
6.63,-0.18,-7.03,21.95,35.36,41.67,0.00,0.12,0.09
6.42,-0.04,-6.90,21.75,35.40,42.33,0.02,0.11,0.04
5.97,0.15,-7.64,20.49,35.56,43.32,0.07,0.07,0.01
8.47,-1.22,-6.81,20.02,35.15,43.09,0.04,0.17,0.06
5.83,-0.42,-7.39,19.00,35.30,43.60,0.04,0.31,0.05
5.79,-0.46,-7.60,18.15,35.47,44.07,0.05,0.33,0.06
5.76,-0.19,-7.83,16.82,35.47,44.05,0.03,0.19,0.06
5.30,0.08,-7.56,16.21,35.72,44.12,0.04,0.19,0.06
5.48,-0.12,-8.10,15.11,35.88,44.62,0.03,0.23,0.05
5.28,-0.09,-7.82,14.69,35.75,45.41,0.00,0.19,0.06
5.47,-0.27,-9.50,13.78,35.36,45.35,-0.02,0.09,0.01
5.50,-0.28,-8.96,13.48,35.36,46.10,0.21,-0.66,-0.28
4.59,-0.17,-7.27,13.27,35.43,46.74,0.27,-0.06,-0.28
4.24,-0.37,-8.03,11.74,35.44,46.77,0.19,0.32,-0.08
4.90,-0.04,-8.69,10.38,35.03,46.70,0.08,0.25,0.11
4.49,-0.17,-7.69,9.54,35.37,47.35,0.07,0.56,0.09
3.95,-0.06,-8.64,8.14,34.83,47.56,0.07,0.72,0.13
2.35,-0.21,-9.35,6.52,34.87,47.12,0.03,0.50,0.20
4.22,-0.06,-8.64,6.02,34.79,47.65,-0.04,-0.19,0.23
2.61,0.09,-8.23,5.42,35.14,47.88,-0.06,0.41,0.50
3.22,0.81,-8.77,4.14,35.08,47.30,-0.09,0.41,0.79
4.33,-1.09,-6.97,3.14,35.34,47.34,-0.00,1.54,1.01
6.14,0.60,-9.76,1.80,34.96,46.95,0.07,0.57,0.84
2.74,0.35,-9.69,1.39,34.83,47.84,0.04,-0.11,0.05
2.91,0.55,-9.15,1.23,35.11,47.37,0.05,-0.34,-0.07
2.58,0.24,-8.75,0.66,34.54,48.44,0.10,-0.27,-0.18
2.04,0.56,-9.50,0.44,34.65,47.90,0.17,-0.19,-0.18
2.63,0.70,-9.88,0.56,34.55,48.04,0.01,-0.42,-0.07
3.04,0.32,-9.10,0.12,35.00,47.88,0.01,-0.57,-0.20
2.68,0.19,-9.25,-0.39,34.73,47.66,0.05,-0.36,-0.20
2.33,0.42,-8.82,-0.82,34.48,47.43,0.07,-0.07,-0.02
2.26,0.42,-8.63,-1.56,34.41,48.51,0.19,0.58,0.14
1.54,0.17,-10.37,-2.97,34.96,47.43,-0.03,0.34,0.18
1.95,0.27,-9.15,-3.17,34.11,48.03,-0.01,-0.08,0.08
1.81,0.36,-8.95,-3.58,34.29,47.54,0.02,0.21,0.11
1.69,0.39,-9.55,-4.93,34.07,47.37,-0.00,0.46,0.09
1.69,0.57,-9.72,-6.14,34.81,47.30,0.02,0.07,-0.11
1.13,0.39,-9.49,-6.66,34.54,47.28,-0.01,0.07,-0.03
1.00,0.52,-9.35,-7.31,34.79,47.41,-0.02,0.30,0.09
0.33,0.27,-9.48,-8.36,34.77,46.99,0.02,0.60,0.25
1.26,0.17,-10.41,-9.95,34.51,46.33,0.06,0.67,0.33
0.42,0.46,-9.73,-11.03,35.05,46.02,0.01,-0.06,-0.01
0.31,0.70,-9.66,-11.50,34.64,46.43,-0.01,-0.09,-0.11
0.27,0.55,-9.55,-12.50,35.27,45.78,-0.02,-0.39,-0.11
-0.12,0.32,-9.57,-12.54,34.87,46.04,-0.03,-0.35,-0.22
0.06,0.51,-9.56,-13.10,35.06,45.79,-0.19,-0.09,0.01
0.03,0.60,-9.81,-13.12,34.90,46.07,-0.13,-0.17,0.02
-0.33,-0.03,-8.81,-13.56,34.87,45.45,-0.31,0.22,0.07
-0.32,0.37,-9.71,-14.63,36.31,45.67,-0.27,0.09,0.09
-2.31,-0.11,-8.76,-15.32,36.60,45.06,-0.27,0.21,0.63
0.25,-0.98,-10.98,-14.45,36.33,44.67,0.25,-0.70,0.82
-0.50,0.10,-9.53,-14.29,36.25,44.15,-0.04,-0.44,0.02
-0.42,0.15,-9.34,-15.10,36.06,45.16,-0.03,-0.39,0.03
-0.34,0.14,-9.50,-14.44,35.93,44.40,-0.02,-0.40,-0.01
-1.08,-0.08,-9.45,-14.63,36.19,44.99,0.07,-0.43,-0.11
-0.28,0.03,-9.68,-14.59,36.39,45.10,0.03,-0.45,0.05
-0.50,0.09,-9.25,-14.83,36.22,44.65,0.24,-0.93,0.05
-0.12,0.44,-9.68,-13.86,35.33,44.88,0.51,-1.58,0.03
0.65,0.88,-9.46,-12.15,34.80,46.58,0.51,-1.44,-0.09
0.08,-0.23,-8.20,-11.69,34.05,46.46,0.07,-0.64,0.06
0.16,0.28,-9.00,-11.34,33.69,46.42,0.04,-0.51,0.05
0.22,0.49,-9.16,-11.17,33.65,46.29,-0.05,-0.30,0.06
0.04,0.52,-9.79,-11.62,34.01,46.57,-0.03,-0.38,0.06
0.22,0.60,-9.56,-11.65,33.82,47.21,0.00,-0.45,0.05
0.41,0.38,-9.62,-11.72,34.19,45.64,-0.02,-0.39,0.06
0.25,0.33,-9.50,-11.44,33.60,46.64,-0.01,-0.39,0.05
0.19,0.49,-9.45,-11.87,33.98,45.89,-0.01,-0.40,0.05
0.29,0.48,-9.58,-11.66,33.91,46.14,-0.02,-0.39,0.06
0.18,0.50,-9.53,-11.65,33.86,46.07,-0.01,-0.41,0.06
0.15,0.46,-9.51,-11.41,34.27,46.33,-0.02,-0.39,0.06
0.29,0.44,-9.52,-11.69,34.11,46.57,-0.02,-0.40,0.06
0.17,0.45,-9.58,-11.60,34.23,45.92,-0.01,-0.39,0.06
0.13,0.47,-9.45,-11.84,33.85,46.51,-0.02,-0.38,0.06
0.06,0.69,-9.90,-12.34,34.30,45.91,-0.08,-0.33,0.14
-0.45,0.59,-9.99,-12.19,34.60,46.52,-0.02,-0.36,0.41
0.22,0.08,-9.18,-11.22,34.81,46.89,0.01,-0.45,0.42
0.78,0.83,-9.60,-10.64,34.90,46.51,-0.06,-0.33,0.21
0.08,0.45,-9.38,-11.08,34.73,46.68,-0.05,-0.35,0.06
0.27,0.52,-9.71,-11.02,35.30,46.71,-0.01,-0.40,0.05
0.00,0.57,-9.54,-11.49,34.96,46.19,-0.11,-0.22,-0.05
0.07,0.29,-9.70,-11.27,34.98,47.02,-0.05,-0.29,-0.12
0.25,0.25,-9.52,-11.44,35.11,46.59,-0.11,-0.20,0.03
0.04,0.33,-9.58,-11.60,35.43,45.95,-0.08,-0.22,0.07
-0.11,0.34,-9.46,-12.58,35.62,45.28,-0.20,0.01,0.09
-0.40,0.40,-9.49,-12.66,35.63,46.10,-0.17,0.00,0.29
-0.21,0.22,-9.52,-13.10,36.01,45.75,-0.14,-0.07,0.26
-0.48,-1.76,-9.48,-13.58,36.20,45.32,-0.07,-0.22,0.23
-0.42,0.19,-9.59,-13.48,36.19,45.47,-0.12,-0.10,0.28
-0.53,0.47,-9.97,-13.67,36.95,45.03,-0.22,0.05,0.25
-0.62,0.15,-9.60,-13.36,36.22,44.87,-0.02,-0.34,-0.01
-0.72,0.12,-9.45,-13.75,35.98,44.83,-0.11,-0.36,-0.04
-1.08,0.43,-9.58,-13.68,36.45,45.62,0.01,-0.12,0.08
-1.12,0.04,-9.47,-14.43,36.39,44.21,0.00,0.00,0.20
-0.78,0.11,-9.33,-14.98,36.67,44.23,-0.02,-0.14,0.11
-0.45,0.01,-9.85,-14.86,36.33,44.07,-0.01,-0.17,0.03
-0.92,0.47,-9.66,-15.45,36.48,44.17,-0.03,0.08,0.14
-1.87,-0.03,-9.93,-16.12,36.33,43.67,-0.02,0.29,0.22
-2.53,-0.03,-9.52,-16.81,36.86,43.47,-0.04,0.29,0.20
-0.06,0.20,-10.68,-17.57,36.69,43.57,0.08,0.31,0.21
-2.07,-0.06,-9.96,-18.50,36.86,43.39,0.03,0.34,0.19
-1.82,-0.03,-9.90,-19.34,36.80,42.65,0.08,0.51,0.31
-2.51,-0.04,-9.14,-20.52,36.82,42.53,0.06,0.54,0.30
-3.03,0.37,-9.03,-21.24,36.66,41.84,-0.00,0.27,0.21
-3.03,-0.31,-9.17,-22.11,36.64,42.52,0.02,0.20,0.16
-3.46,0.19,-8.87,-22.79,36.89,41.26,0.01,0.19,0.13
-2.19,1.80,-9.58,-23.78,37.15,40.69,-0.02,0.25,0.11
-0.19,0.45,-9.46,-23.98,37.05,40.47,0.00,0.22,0.14
-4.08,0.69,-8.75,-25.74,36.60,39.40,-0.03,-0.02,0.09
-4.36,0.32,-8.82,-26.21,37.23,39.77,-0.01,-0.01,0.10
-4.33,0.22,-9.07,-26.10,37.52,39.89,0.03,0.11,0.14
-4.97,-0.01,-9.98,-26.73,37.46,39.16,0.04,0.09,0.15
-3.89,0.29,-9.38,-27.26,37.52,38.57,0.04,0.01,0.12
-4.73,0.31,-8.29,-26.97,37.24,37.66,0.00,0.02,0.09
-3.37,0.10,-8.95,-27.87,37.08,37.40,-0.00,0.03,0.12
-3.10,0.04,-8.13,-28.15,37.56,37.31,-0.00,-0.02,0.06
-3.68,0.19,-8.69,-28.41,37.17,37.12,0.00,-0.11,0.05
-4.04,0.12,-8.59,-28.73,37.24,37.09,-0.01,-0.12,0.07
-4.22,-0.11,-9.18,-28.95,36.98,37.09,0.01,-0.02,0.11
-4.52,-0.43,-9.49,-29.07,37.15,36.99,-0.04,0.23,-0.09
-2.74,-0.27,-9.44,-30.21,37.42,35.84,-0.09,0.34,-0.10
-6.50,-0.53,-6.50,-31.07,37.04,35.06,-0.11,0.31,-0.07
-5.58,-0.44,-7.48,-31.38,36.95,34.20,-0.16,-0.08,-0.15
-5.18,-0.21,-7.17,-32.10,37.28,34.20,-0.20,-0.24,-0.19
-4.61,-0.24,-8.02,-32.23,37.23,33.92,-0.06,0.12,-0.03
-5.66,-0.06,-8.49,-33.08,37.18,33.51,-0.04,0.24,0.01
-5.38,0.22,-8.15,-33.53,37.07,32.65,-0.02,0.18,-0.01
-6.12,0.32,-8.18,-34.29,36.61,32.10,-0.02,0.03,0.04
-5.29,0.14,-8.40,-35.00,36.60,31.80,-0.05,-0.02,-0.00
-5.66,0.06,-8.26,-35.00,36.85,31.54,-0.03,-0.13,-0.00
-6.52,0.25,-7.30,-35.62,37.11,32.52,0.01,0.05,0.08
-4.49,-0.53,-8.69,-35.49,37.14,31.31,-0.03,0.33,0.06
-5.95,0.73,-7.75,-36.47,36.70,29.68,-0.11,0.28,0.02
-5.93,0.35,-7.21,-36.50,36.88,28.34,-0.06,0.14,0.00
-5.86,0.32,-6.98,-37.08,36.69,28.95,-0.01,-0.03,0.07
-6.53,0.05,-7.44,-37.50,36.96,28.12,0.26,-0.02,0.04
-6.50,0.60,-7.24,-37.71,37.04,27.86,-0.10,0.07,-0.02
-6.46,-0.05,-6.94,-38.22,36.55,27.83,0.10,0.33,0.16
-6.73,0.09,-7.11,-38.91,36.80,26.37,0.13,0.34,0.22
-7.13,0.01,-6.72,-39.16,36.99,26.00,-0.02,0.13,0.16
-6.97,0.17,-6.35,-39.40,37.14,24.54,-0.01,0.00,0.14
-7.12,0.09,-6.43,-39.70,37.24,24.60,-0.02,-0.02,0.14
-7.20,0.18,-6.57,-39.77,37.20,24.70,0.01,0.03,0.13
-7.43,-0.01,-6.11,-39.83,37.80,24.41,-0.11,0.07,0.07
-6.08,-0.23,-5.19,-40.78,38.15,23.93,0.11,0.24,0.02
-6.01,-0.48,-5.17,-41.29,37.68,22.64,-0.12,0.00,0.26
-7.70,0.20,-6.24,-41.45,37.18,21.48,0.04,-0.00,0.07
-7.94,0.17,-5.93,-41.92,37.33,21.21,-0.03,0.09,0.08
-7.82,0.07,-5.59,-42.30,37.28,21.19,-0.02,-0.05,0.04
-7.88,-0.03,-5.80,-42.43,37.12,20.46,-0.06,0.13,0.01
-7.79,-0.02,-5.36,-42.49,37.20,19.18,-0.01,0.13,0.05
-8.13,0.05,-5.52,-42.79,37.08,19.37,-0.02,0.18,0.06
-8.20,0.19,-5.14,-43.23,37.02,18.58,-0.01,0.26,0.05
-8.22,0.14,-4.95,-43.50,37.08,17.68,-0.01,0.32,0.06
-8.57,0.19,-4.87,-43.61,37.14,16.60,-0.02,0.33,0.06
-8.56,0.18,-4.69,-43.76,37.24,14.89,-0.01,0.30,0.04
-8.72,-0.01,-4.49,-44.15,36.88,14.44,-0.02,0.46,0.05
-8.72,0.24,-4.24,-44.93,36.86,13.15,-0.06,0.47,0.02
-8.84,-0.03,-3.80,-45.22,37.43,11.28,-0.21,0.44,-0.05
-9.04,0.16,-3.73,-45.70,37.64,10.87,-0.08,0.28,0.02
-9.04,0.15,-3.80,-46.21,40.87,9.68,-0.09,0.32,0.02
-9.06,-0.09,-5.20,-46.36,37.56,9.81,-0.25,0.31,-0.05
-9.55,0.12,-3.13,-46.73,36.90,8.07,-0.37,0.31,-0.12
-9.32,0.32,-2.91,-47.25,36.83,5.00,-0.11,-0.10,0.03
-9.17,0.29,-3.02,-46.90,36.79,4.95,0.20,0.26,0.11
-8.97,1.83,-2.79,-46.83,37.33,3.71,0.36,0.51,0.16
-9.30,0.16,-2.96,-47.31,37.69,3.65,0.20,0.51,0.11
-9.55,0.04,-2.11,-47.21,36.88,1.34,0.00,0.29,0.05
-9.60,0.25,-2.02,-47.24,37.01,2.00,-0.02,0.04,0.11
-9.65,0.22,-1.92,-47.19,36.99,0.32,-0.01,-0.07,0.12
-9.64,0.16,-1.90,-47.18,37.07,0.91,0.09,-0.06,0.14
-9.81,0.21,-1.77,-47.05,37.77,-0.67,-0.04,0.06,0.11
-9.61,0.09,-1.67,-46.93,37.27,-1.34,-0.04,0.04,0.14
-9.55,-0.01,-1.34,-46.73,37.49,-1.13,-0.03,-0.04,0.13
-9.85,0.11,-1.41,-46.62,37.72,-1.58,-0.02,-0.30,0.06
-9.76,-0.09,-1.72,-46.90,37.78,-2.19,-0.02,-0.09,0.05
-9.79,0.00,-1.21,-46.68,37.50,-3.32,-0.02,0.21,0.04
-9.85,0.20,-0.98,-46.89,37.50,-3.74,-0.02,0.26,0.05
-9.83,0.18,-0.93,-46.52,37.83,-3.42,-0.02,0.27,0.05
-9.71,-0.07,-0.79,-47.19,37.69,-5.69,-0.02,0.27,0.08
-8.99,0.32,-1.36,-46.67,38.23,-6.61,-0.03,0.49,0.03
-9.43,-0.07,0.37,-46.40,37.66,-7.78,-0.02,0.53,0.04
-9.58,0.05,0.19,-45.73,38.03,-9.34,-0.01,0.54,0.04
-9.59,0.11,0.06,-45.94,37.65,-11.12,-0.02,0.51,0.06
-9.85,0.16,0.73,-45.22,37.80,-12.13,-0.02,0.54,0.06
-9.77,0.09,1.11,-45.07,37.85,-13.01,-0.02,0.33,0.06
-9.78,-0.01,1.07,-44.64,37.30,-13.84,-0.02,0.17,0.06
-9.88,1.83,1.12,-44.40,37.31,-14.91,-0.02,0.17,0.06
-9.76,0.11,1.28,-44.05,37.05,-16.11,-0.02,0.25,0.06
-9.61,-0.01,1.65,-43.67,37.24,-15.97,-0.02,0.23,0.04
-9.83,0.09,1.58,-43.57,37.62,-17.25,-0.02,0.39,0.05
-9.55,0.08,2.15,-43.22,37.18,-18.46,-0.02,0.32,0.06
-9.63,0.32,2.24,-42.55,37.58,-18.91,-0.02,0.16,0.05
-9.38,0.17,2.51,-42.43,37.24,-20.42,-0.02,-0.03,0.07
-9.60,0.10,2.32,-42.41,36.93,-20.20,-0.02,-0.10,0.07
-9.65,-0.01,2.54,-42.20,37.45,-21.27,-0.02,0.01,0.06
-9.68,-0.01,2.36,-41.96,37.77,-21.00,-0.02,0.09,0.06
-9.60,-0.01,2.77,-40.92,37.90,-22.35,-0.02,0.40,0.04
-9.48,0.17,2.86,-41.14,37.56,-22.04,-0.02,0.30,0.05
-9.27,0.27,3.22,-40.44,37.93,-23.62,-0.02,0.41,0.05
-9.21,0.12,3.47,-39.83,37.72,-23.87,-0.02,0.12,0.06
-9.23,0.08,4.41,-39.61,37.34,-25.04,-0.01,0.00,0.05
-8.97,-0.88,3.75,-38.94,37.36,-25.94,0.05,0.21,0.04
-10.33,-0.17,6.33,-38.34,37.64,-26.56,0.51,1.21,-0.13
-6.50,-0.37,5.58,-37.02,37.27,-28.18,0.68,1.78,-0.28
-5.92,-1.10,4.61,-35.12,37.28,-30.62,0.34,1.30,-0.12
-8.57,1.51,6.50,-34.24,37.49,-31.00,0.42,1.20,-0.17
-6.72,0.36,5.89,-32.72,37.53,-32.65,0.22,1.16,-0.10
-10.70,-0.27,5.89,-31.37,37.47,-33.62,0.06,0.90,0.07
-8.38,3.94,4.73,-30.14,37.08,-34.84,-0.04,0.68,0.21
-7.97,1.95,7.30,-28.98,37.58,-35.85,0.02,0.54,0.27
-6.40,-1.21,7.50,-27.57,38.22,-36.47,0.15,0.73,0.29
-4.17,-1.46,6.22,-25.88,38.37,-37.43,-0.04,0.38,0.37
-7.98,0.78,6.37,-25.24,37.65,-36.92,-0.23,0.14,0.19
-7.95,1.12,7.47,-24.80,37.23,-38.02,-0.14,0.03,0.02
-7.54,-0.27,7.12,-24.61,37.37,-37.85,-0.10,0.12,0.01
-7.21,-0.39,7.02,-23.95,37.33,-38.83,-0.01,0.11,-0.03
-5.99,-0.72,7.65,-23.56,37.14,-38.35,-0.10,0.20,0.15
-4.44,0.97,7.09,-21.67,37.07,-39.43,-0.04,0.34,0.29
-5.64,-0.16,7.77,-21.03,37.30,-39.96,0.08,0.31,0.08
-5.46,1.79,7.54,-19.56,37.24,-40.00,-0.01,0.26,0.09
-3.68,-1.17,8.44,-19.12,37.01,-40.65,0.03,0.30,0.19
-5.25,0.04,8.10,-18.01,37.34,-41.17,0.04,0.43,0.35
-4.73,0.10,8.19,-16.84,36.99,-41.16,-0.15,0.20,0.37
-5.21,-0.06,9.28,-16.53,36.99,-41.60,-0.16,0.10,0.34
-5.99,-0.98,7.66,-15.64,37.62,-42.09,-0.15,-0.04,0.35
-6.49,-0.11,8.71,-15.05,37.43,-42.44,-0.11,-0.05,0.43
-5.62,-0.15,8.28,-14.69,36.70,-42.02,0.01,-0.17,0.23
-5.36,-0.17,8.76,-14.18,37.72,-41.82,0.06,-0.16,0.16
-4.99,-0.04,8.89,-13.39,37.15,-42.69,0.00,-0.23,0.10
-5.14,-0.58,8.79,-13.45,37.31,-42.87,-0.02,-0.20,0.07
-5.25,-0.19,8.56,-12.51,37.85,-42.96,-0.06,0.10,0.16
-4.54,-0.37,8.66,-12.15,37.46,-43.00,-0.32,0.07,0.16
-4.86,-0.24,8.90,-11.15,36.86,-42.97,-0.37,0.59,-0.12
-4.67,0.19,9.35,-8.90,36.39,-43.19,0.17,1.86,0.35
-3.50,-0.61,9.91,-6.52,36.93,-43.80,0.65,1.55,0.08
-3.09,-0.28,9.55,-3.38,38.70,-42.98,0.48,1.06,0.25
-2.04,-1.31,8.71,-1.52,38.32,-42.97,0.10,0.34,0.46
-2.58,-0.95,10.04,-0.91,38.53,-43.64,-0.32,-0.36,0.33
-2.68,-0.36,9.96,-0.37,38.10,-43.12,-0.16,-0.10,0.22
-2.60,-0.50,9.84,0.60,38.50,-43.22,-0.08,-0.10,0.23
-2.44,-0.18,9.78,0.53,37.72,-43.34,-0.08,0.05,0.19
-2.56,-0.24,10.50,1.58,37.65,-43.72,0.18,0.33,0.24
-1.89,-0.96,7.51,2.86,37.88,-43.13,0.30,0.49,0.10
-1.82,-0.56,10.20,4.59,38.88,-42.44,0.28,0.15,0.10
-1.24,-0.37,10.22,4.88,38.60,-43.07,-0.11,-0.39,0.14
-1.73,-0.85,9.79,4.28,39.05,-42.22,0.02,-0.25,0.11
-1.50,-0.87,9.64,5.33,39.07,-42.71,0.00,-0.28,0.11
-1.63,-0.71,9.76,5.50,38.98,-43.15,-0.01,-0.31,0.06
-1.63,-0.66,9.76,5.39,39.26,-42.75,-0.01,-0.35,0.10
-1.62,-0.50,9.91,5.14,39.17,-41.63,-0.03,-0.38,0.20
-2.43,-0.34,10.29,5.71,39.13,-42.20,-0.02,-0.24,0.24
-1.63,-0.62,9.92,6.23,38.95,-41.86,0.01,0.04,0.15
-1.64,-0.74,10.29,6.84,38.22,-42.24,-0.01,-0.21,0.10
-1.12,-0.86,9.97,7.21,38.61,-41.60,-0.01,-0.24,0.09
-1.05,-0.90,9.99,7.35,38.51,-42.30,0.01,-0.24,-0.01
-1.50,-0.67,9.78,6.77,38.34,-42.09,-0.01,-0.28,0.05
-1.09,-0.47,10.18,7.85,38.64,-41.92,-0.04,-0.35,0.07
-1.00,-0.67,10.18,8.10,38.79,-41.80,-0.03,-0.38,0.05
-1.27,-0.97,9.89,8.18,39.05,-42.14,-0.05,-0.45,0.06
-1.21,-0.88,9.92,7.50,38.89,-41.96,-0.11,-0.60,0.18
-1.49,-0.69,10.17,7.25,38.89,-42.88,-0.08,-0.66,0.18
-1.55,-0.69,9.78,7.29,38.67,-42.36,-0.05,-0.61,0.29
-1.59,-1.53,9.89,7.02,38.78,-42.78,-0.17,-0.51,0.48
-1.21,-0.01,10.35,6.49,38.51,-42.90,-0.01,-0.35,0.16
-1.54,-0.60,9.91,6.91,38.40,-43.31,0.08,-0.35,0.06
-1.69,-0.69,9.87,7.12,39.04,-42.27,0.11,-0.20,0.02
-1.13,-1.00,9.55,7.51,38.40,-42.96,0.07,-0.11,0.05
-1.19,-0.82,10.12,8.29,38.56,-41.99,0.08,-0.11,0.09
-1.15,-0.82,9.86,8.30,38.45,-42.96,-0.00,-0.26,0.07
-1.13,-0.62,9.07,9.37,38.59,-42.34,-0.04,0.11,0.00
-0.79,-0.81,10.43,9.89,38.28,-42.41,-0.03,0.03,-0.10
-0.77,-1.00,10.09,10.27,38.32,-42.88,-0.03,-0.37,0.12
-0.94,-0.58,9.99,10.13,37.97,-42.22,-0.01,-0.37,0.15
-0.61,-0.84,9.60,10.67,37.58,-42.78,-0.12,-0.21,0.00
-0.93,-0.50,10.23,10.96,37.26,-42.98,-0.09,-0.29,0.04
-0.83,-0.71,10.07,11.08,33.94,-42.33,-0.06,-0.33,0.05
-1.03,-0.41,9.75,10.89,37.28,-43.13,-0.05,-0.28,0.08
-0.50,-0.85,9.68,11.40,37.21,-41.99,-0.17,-0.22,0.08
-0.47,-0.42,10.18,12.01,37.04,-42.65,-0.16,-0.26,0.10
-0.64,-0.36,10.06,12.03,36.45,-43.17,-0.12,-0.29,0.07
-0.73,-0.67,9.96,12.16,36.79,-42.25,-0.09,-0.32,0.08
-0.58,-0.62,9.96,12.83,36.51,-42.22,-0.16,-0.25,0.05
-0.51,-0.83,10.41,12.53,36.45,-42.69,-0.20,-0.17,0.07
-0.37,-0.46,10.31,12.79,36.10,-42.56,-0.26,-0.17,0.05
-0.41,-0.20,10.00,12.55,35.38,-41.99,-0.24,-0.18,0.04
-0.18,-0.14,10.36,13.61,35.05,-42.84,-0.27,-0.15,0.11
-0.31,-0.12,10.43,13.59,35.11,-42.55,-0.06,-0.37,0.08
-0.24,-0.19,9.96,13.72,35.03,-42.68,-0.07,-0.35,0.12
-0.08,-0.20,10.09,14.16,34.67,-41.63,-0.07,-0.40,0.19
-0.07,-0.18,9.98,13.99,34.27,-41.55,-0.12,-0.26,0.13
-0.88,-0.62,9.48,14.45,33.85,-41.52,-0.42,0.36,0.04
-0.34,0.30,10.60,15.71,33.25,-41.86,-0.06,-0.51,0.11
-0.32,-0.12,9.91,15.17,33.43,-42.58,-0.05,-0.28,0.00
0.02,-0.03,10.05,15.71,33.73,-42.81,-0.08,-0.37,0.08
0.02,0.04,10.01,16.06,33.46,-42.43,-0.06,-0.33,0.02
-0.08,-0.21,9.97,15.80,33.40,-42.71,-0.08,-0.36,0.03
0.09,0.06,10.12,15.78,33.24,-42.79,-0.05,-0.36,0.07
0.02,-0.01,9.95,16.00,33.21,-42.08,-0.06,-0.31,0.17
0.22,0.27,10.19,16.41,33.02,-42.18,-0.08,-0.27,0.33
0.30,0.41,10.58,16.69,32.37,-42.85,-0.04,-0.08,0.61
0.14,0.17,10.09,17.68,31.99,-42.06,-0.04,-0.02,0.37
0.34,0.05,9.75,18.37,31.73,-42.17,-0.02,-0.20,0.32
0.20,0.17,10.08,18.78,31.80,-42.46,-0.02,-0.23,0.18
-0.03,0.18,10.02,18.36,31.75,-41.93,-0.07,-0.06,0.02
0.16,-0.07,10.32,19.51,31.79,-42.49,-0.01,-0.25,0.01
-0.04,0.42,10.47,18.78,31.69,-42.25,0.31,-0.20,0.02
0.50,0.30,9.70,19.57,31.73,-42.30,-0.01,-0.29,0.07
0.65,-0.07,9.94,19.37,32.02,-41.82,-0.02,-0.31,0.09
0.51,0.15,10.06,19.03,32.18,-42.49,-0.01,-0.37,0.11
0.41,0.12,9.99,19.64,31.70,-42.44,-0.02,-0.37,0.08
0.68,0.24,10.03,19.66,31.88,-41.92,-0.02,-0.36,0.04
0.53,0.11,10.04,19.26,31.77,-42.58,-0.02,-0.39,0.06
0.64,0.20,10.05,19.23,31.75,-41.83,-0.02,-0.37,0.03
0.47,0.03,10.09,19.53,31.79,-42.02,-0.02,-0.38,0.05
0.47,0.02,9.96,19.10,31.45,-42.15,-0.02,-0.29,0.02
0.66,-0.03,10.05,19.19,31.94,-41.89,-0.01,-0.32,0.03
0.73,0.09,10.21,19.39,31.57,-41.71,-0.03,-0.26,-0.02
0.42,0.13,10.01,19.56,31.99,-41.57,-0.02,-0.24,-0.03
0.59,0.01,9.91,19.63,31.86,-40.92,-0.03,-0.26,-0.02
0.69,0.08,9.93,19.75,31.85,-40.65,-0.02,-0.37,0.04
0.85,0.11,10.11,19.69,31.56,-40.68,-0.01,-0.37,0.05
0.53,0.01,10.00,19.99,32.20,-41.17,-0.02,-0.34,0.03
0.80,0.03,10.01,19.75,31.96,-40.92,-0.02,-0.33,0.04
0.88,-0.01,10.00,19.82,32.14,-40.87,-0.02,-0.36,0.03
0.87,0.06,9.85,19.83,32.20,-41.30,-0.02,-0.43,0.06
0.65,-0.01,10.06,19.69,32.04,-40.66,-0.02,-0.44,0.06
0.86,0.09,10.08,19.53,31.99,-41.22,-0.02,-0.40,0.06
0.74,0.03,10.03,19.66,31.88,-41.11,-0.02,-0.39,0.06
0.88,-0.08,9.88,20.05,31.92,-40.81,-0.01,-0.44,0.07
0.77,0.27,10.17,19.73,31.98,-40.65,-0.02,-0.43,0.07
0.76,0.06,9.97,20.01,32.32,-41.70,-0.01,-0.35,0.09
0.74,0.25,9.97,19.85,31.99,-41.48,-0.00,-0.33,0.10
0.91,-0.06,9.85,20.15,31.73,-40.63,0.02,-0.35,0.17
0.80,0.01,10.13,20.33,32.04,-40.72,0.01,-0.38,0.21
0.72,-0.11,10.18,20.34,32.17,-41.36,0.07,-0.43,0.16
0.81,0.11,9.98,20.11,32.45,-41.35,0.12,-0.49,0.13
0.61,0.00,10.07,19.99,32.45,-41.03,0.29,-0.70,0.23
0.76,-0.14,9.93,19.67,32.43,-41.52,0.35,-0.76,0.21
0.73,-0.19,9.89,19.06,33.47,-41.64,0.31,-0.61,0.12
0.43,-0.20,10.14,19.07,33.47,-41.27,0.32,-0.65,0.15
0.57,-0.54,9.78,18.52,34.14,-41.32,0.35,-0.71,0.19
0.39,-0.31,10.23,18.36,34.45,-40.24,0.30,-0.58,0.12
0.09,-0.47,9.90,18.01,34.79,-40.69,0.21,-0.45,0.07
0.04,-0.59,9.80,18.11,35.19,-41.06,0.17,-0.46,0.09
0.10,-0.73,9.70,17.92,35.56,-41.52,0.10,-0.46,0.14
0.24,-0.55,9.87,17.63,36.03,-40.53,0.02,-0.29,0.08
0.20,-0.42,10.55,18.24,35.59,-40.27,0.10,-0.48,0.14
0.23,-0.73,10.11,17.66,36.09,-40.40,0.20,-0.47,0.15
0.15,-0.89,10.16,17.44,36.39,-39.94,0.22,-0.49,0.17
0.44,-0.97,9.91,17.41,36.39,-40.13,0.21,-0.42,0.11
0.10,-1.08,9.89,17.77,36.54,-39.96,0.16,-0.48,0.12
0.19,-1.13,9.97,17.83,37.27,-40.00,0.10,-0.46,0.17
0.21,-1.00,10.15,17.57,36.93,-40.50,0.10,-0.35,0.13
0.14,-1.06,10.01,17.90,36.89,-40.43,0.09,-0.41,0.12
0.27,-1.09,9.89,18.20,36.99,-40.25,0.03,-0.26,0.04
0.22,-1.16,10.04,17.74,37.27,-40.69,0.03,-0.27,0.03
0.25,-1.16,10.04,18.23,37.11,-40.68,0.05,-0.38,0.07
0.62,-1.15,10.02,18.05,36.96,-41.04,0.02,-0.32,0.02
0.52,-0.62,10.11,18.40,36.92,-40.57,0.03,-0.29,-0.05
0.38,-1.06,9.83,18.34,37.15,-40.84,0.05,-0.27,-0.08
0.29,-1.26,9.88,18.02,36.99,-39.99,0.02,-0.25,-0.04
0.28,-1.14,9.98,18.20,37.46,-40.40,0.06,-0.40,0.10
0.34,-1.23,9.79,18.84,37.46,-39.94,-0.01,-0.37,0.07
0.15,-1.10,10.08,18.53,33.73,-39.56,-0.04,-0.39,0.04
0.52,-1.33,9.94,18.42,36.90,-40.47,-0.16,-0.29,0.02
0.53,-1.14,9.96,18.80,36.77,-39.48,-0.16,-0.27,0.03
0.14,-1.05,10.39,18.94,37.01,-40.16,-0.13,-0.32,0.07
0.80,-1.02,9.98,19.10,36.45,-40.03,-0.20,-0.21,0.08
0.80,-1.01,9.75,19.67,36.25,-39.58,-0.07,-0.20,0.08
0.45,-1.03,10.12,19.88,36.38,-39.99,-0.08,-0.34,0.13
0.39,-0.89,10.14,19.60,36.26,-39.94,-0.10,-0.32,0.08
0.38,-0.95,10.01,19.70,35.76,-39.08,-0.17,-0.22,0.01
0.72,-0.89,9.91,19.92,35.31,-39.67,-0.28,-0.21,0.01
0.71,-0.81,10.12,20.53,35.02,-40.84,-0.27,-0.19,-0.04
0.71,-0.62,9.99,20.26,34.17,-40.49,-0.26,-0.23,-0.03
0.98,-0.60,9.91,20.84,34.73,-40.57,-0.26,-0.23,0.00
0.87,-0.53,9.95,20.83,34.23,-40.89,-0.21,-0.28,0.04
0.75,-0.52,9.91,20.94,34.11,-40.72,-0.26,-0.29,0.03
0.85,-0.36,9.99,20.86,36.88,-41.26,-0.20,-0.29,0.01
0.90,-0.27,10.23,21.40,33.44,-41.25,-0.23,-0.23,0.02
0.85,-0.32,10.19,21.62,32.30,-41.33,-0.35,-0.26,0.02
1.22,-0.01,10.13,21.75,31.41,-41.22,-0.43,-0.11,-0.04
1.23,-0.04,9.86,22.14,31.20,-41.35,-0.48,-0.13,-0.01
1.22,-0.04,10.02,22.43,30.66,-41.73,-0.46,-0.26,-0.02
1.13,0.37,9.93,22.95,29.86,-42.18,-0.55,-0.07,-0.16
1.39,0.56,9.68,23.49,29.35,-41.98,-0.44,-0.13,-0.07
1.39,0.50,9.54,23.66,28.81,-42.36,-0.38,-0.12,-0.07
1.50,0.33,9.45,24.09,28.41,-42.39,-0.21,-0.32,-0.04
1.56,0.70,9.86,24.14,28.11,-42.53,-0.10,-0.47,0.04
1.61,0.89,10.11,24.23,28.02,-42.56,-0.22,-0.37,-0.01
1.58,0.68,9.91,24.10,27.33,-43.10,-0.27,-0.34,0.02
1.36,0.68,9.94,23.88,26.73,-42.78,-0.27,-0.46,0.04
1.59,0.89,9.96,23.95,26.98,-42.90,-0.21,-0.46,0.06
1.68,1.09,10.27,23.63,26.12,-43.41,-0.36,-0.51,0.05
1.49,1.06,10.18,24.03,25.61,-43.72,-0.59,-0.49,-0.01
1.20,1.17,9.82,23.40,25.10,-44.45,-0.67,-0.41,-0.03
1.50,1.75,9.82,23.40,23.47,-44.56,-0.53,-0.38,0.04
1.59,1.55,9.56,23.00,23.56,-44.31,-0.35,-0.26,0.05
1.73,1.49,9.60,23.68,22.70,-44.01,-0.40,-0.35,0.02
1.44,1.67,9.62,23.37,21.89,-44.14,-0.42,-0.33,-0.04
1.66,2.11,9.63,23.59,21.89,-44.43,-0.38,-0.26,-0.01
1.43,1.94,9.81,24.17,21.46,-44.68,-0.43,-0.37,0.01
1.67,2.25,9.80,24.07,20.81,-45.28,-0.48,-0.49,0.04
1.60,2.53,9.87,23.97,19.85,-44.97,-0.49,-0.43,0.01
1.64,2.63,9.88,24.04,18.91,-45.56,-0.54,-0.37,0.01
1.40,2.27,9.73,24.29,18.80,-45.19,-0.62,-0.36,0.01
2.28,2.74,9.30,24.09,18.11,-45.79,-0.64,-0.50,0.01
1.81,2.78,9.25,24.17,17.01,-45.69,-0.67,-0.64,0.03
1.60,3.15,9.27,23.60,16.12,-46.52,-0.67,-0.50,-0.03
1.57,3.53,9.30,23.43,14.78,-46.42,-0.68,-0.36,-0.09
1.25,3.53,9.48,23.37,13.61,-45.35,-0.72,-0.32,-0.13
1.21,3.31,9.27,23.97,12.70,-46.95,-0.83,-0.46,-0.18
1.57,4.02,9.04,23.05,11.62,-46.70,-0.80,-0.68,-0.12
1.59,4.52,9.19,22.89,11.09,-47.40,-0.61,-0.66,0.06
1.26,4.26,9.22,22.43,10.03,-47.65,-0.65,-0.58,-0.00
1.40,4.16,8.78,22.61,8.96,-47.72,-0.76,-0.57,-0.11
1.51,4.63,8.50,22.27,7.70,-47.97,-0.66,-0.67,-0.03
1.11,4.72,8.41,21.69,7.25,-48.45,-0.40,-0.59,-0.03
1.13,4.75,8.44,21.60,6.99,-47.75,-0.21,-0.52,-0.10
1.45,4.55,8.28,21.24,6.20,-47.82,-0.18,-0.42,-0.17
1.34,4.95,8.64,21.29,6.26,-48.29,-0.22,-0.38,-0.14
1.23,4.95,8.77,21.65,6.23,-47.52,-0.30,-0.34,-0.12
1.34,4.92,8.61,21.19,6.05,-47.63,-0.39,-0.39,-0.08
1.40,5.15,8.49,21.10,5.06,-47.40,-0.40,-0.49,-0.00
1.30,5.25,8.61,21.29,5.04,-47.49,-0.37,-0.49,0.06
1.23,4.94,8.50,20.70,4.15,-47.25,-0.36,-0.45,0.04
1.44,5.19,8.47,20.94,4.30,-47.05,-0.43,-0.45,0.15
1.19,5.36,8.28,20.94,2.21,-45.98,-0.41,-0.45,0.21
1.32,5.53,8.23,20.93,1.72,-46.89,-0.45,-0.38,0.16
1.18,5.40,8.25,20.91,1.30,-46.57,-0.49,-0.33,0.04
1.48,5.79,7.80,20.89,0.70,-46.71,-0.41,-0.27,0.04
1.54,5.99,7.66,20.89,-0.22,-47.05,-0.50,-0.39,0.17
1.31,5.66,7.73,20.71,-1.55,-46.54,-0.55,-0.52,0.29
0.99,6.79,7.76,20.75,-2.16,-45.40,-0.52,-0.43,0.13
0.98,6.43,8.08,20.84,-3.00,-46.61,-0.30,-0.25,-0.31
1.25,6.22,7.92,20.96,-3.04,-45.57,-0.43,-0.19,-0.00
0.92,6.79,7.39,21.00,-4.69,-44.88,-0.41,-0.46,0.33
1.32,6.30,7.64,21.18,-5.38,-45.06,-0.19,-0.29,0.32
1.41,6.70,7.05,20.90,-5.95,-45.19,-0.25,-0.26,0.23
1.24,6.73,7.25,21.27,-6.11,-44.78,-0.34,-0.33,0.16
0.46,6.81,7.47,20.42,-6.59,-44.39,-0.43,-0.38,0.27
0.83,7.67,7.35,21.19,-7.35,-44.36,-0.30,-0.14,0.10
0.69,7.17,7.16,21.18,-8.26,-44.75,-0.34,-0.19,0.10
1.54,7.16,6.85,21.37,-8.40,-44.23,-0.37,-0.36,0.09
1.51,7.32,6.69,21.48,-9.43,-43.12,-0.43,-0.38,0.12
1.18,7.20,6.53,21.70,-9.85,-43.79,-0.42,-0.29,-0.05
1.39,7.00,6.40,21.92,-9.57,-43.72,-0.38,-0.43,0.02
1.33,7.04,6.26,21.19,-10.84,-43.07,-0.41,-0.52,0.05
1.16,7.24,6.20,21.41,-10.92,-43.03,-0.39,-0.51,-0.01
0.83,7.56,6.14,20.33,-11.50,-43.45,-0.22,-0.41,0.01
1.34,7.81,6.56,20.86,-11.71,-42.55,-0.15,-0.46,0.07
1.09,7.97,6.58,20.43,-12.26,-42.79,-0.18,-0.52,0.17
0.99,7.78,6.38,20.74,-12.32,-41.93,-0.18,-0.35,-0.01
1.49,7.65,6.37,21.32,-12.54,-41.36,-0.20,-0.37,-0.05
1.23,7.70,6.37,21.31,-12.55,-42.22,-0.19,-0.47,-0.04
1.19,8.00,6.34,21.67,-12.77,-42.02,-0.16,-0.54,-0.05
0.87,7.83,6.12,21.35,-13.18,-42.65,-0.12,-0.49,0.10
1.06,7.81,6.17,21.19,-13.55,-42.31,-0.23,-0.44,-0.12
1.01,7.61,6.28,21.02,-13.55,-42.21,-0.23,-0.37,-0.23
0.37,6.66,5.60,21.18,-14.10,-41.32,-0.31,-0.28,-0.41
1.93,7.82,6.11,22.08,-14.72,-41.57,-0.70,-0.22,-0.54
2.14,7.52,5.43,22.39,-15.38,-40.44,-1.12,-0.30,-0.59
1.51,7.81,5.46,23.47,-16.72,-39.73,-1.31,-0.21,-0.49
1.45,7.96,5.23,23.98,-18.33,-38.32,-1.37,-0.26,-0.45
2.28,7.67,5.20,24.88,-19.75,-37.64,-1.51,-0.32,-0.55
2.46,8.62,3.82,25.43,-20.97,-36.10,-1.77,-0.17,-0.76
2.54,8.65,3.43,26.02,-22.39,-33.94,-1.82,-0.17,-0.60
2.58,9.35,3.19,26.21,-24.06,-32.77,-1.62,-0.24,-0.05
2.30,9.60,3.29,26.70,-25.15,-30.99,-1.01,-0.26,0.11
2.91,9.79,2.49,26.60,-25.77,-30.85,-0.58,-0.20,-0.01
2.32,9.38,2.40,26.41,-26.57,-29.89,-0.41,-0.16,0.15
2.61,9.20,2.39,26.79,-27.00,-29.13,-0.22,-0.25,0.34
2.29,9.15,2.41,26.73,-27.16,-28.63,-0.00,-0.30,0.29
2.31,9.23,2.48,26.26,-26.92,-28.44,-0.31,-0.23,0.34
2.41,9.18,2.56,26.19,-27.73,-28.15,-0.23,-0.11,0.34
2.64,8.64,2.38,26.79,-28.37,-28.09,-0.43,-0.18,0.49
2.25,9.15,1.92,25.81,-28.65,-26.92,-0.64,-0.31,0.46
2.13,9.68,1.51,25.86,-29.19,-26.70,-0.64,-0.26,0.32
1.79,9.47,1.60,25.52,-30.40,-25.74,-0.54,-0.19,0.26
1.80,9.60,1.35,25.36,-30.71,-25.17,-0.37,-0.27,0.26
1.77,9.04,1.69,25.02,-31.04,-23.57,-0.49,-0.27,0.41
1.67,9.69,1.16,24.26,-31.73,-23.78,-0.53,-0.41,0.49
1.66,9.73,1.11,24.03,-32.15,-23.52,-0.31,-0.51,0.36
1.50,10.24,0.93,23.66,-32.24,-22.76,0.03,-0.63,0.07
1.51,9.57,0.92,23.60,-32.53,-22.32,-0.18,-0.20,-0.04
1.44,9.75,1.32,24.57,-32.45,-21.86,-0.46,0.08,-0.16
1.62,9.61,1.17,24.71,-32.97,-20.74,-0.31,-0.00,-0.04
2.02,9.50,0.81,24.96,-32.46,-20.74,-0.22,-0.11,0.04
1.45,9.53,1.16,25.39,-32.77,-20.34,-0.23,-0.20,0.07
2.41,9.21,0.83,25.71,-32.87,-21.06,-0.31,-0.20,0.20
1.56,9.51,0.52,25.87,-33.69,-20.15,-0.17,-0.28,-0.39
2.12,9.54,0.44,25.68,-33.41,-19.06,-0.07,-0.26,-0.32
1.44,9.69,0.11,26.03,-32.84,-19.54,0.25,-0.54,-0.54
2.25,9.55,0.61,26.85,-32.17,-19.83,0.14,-0.36,-0.27
2.58,9.83,0.61,26.98,-32.53,-20.32,0.07,-0.35,-0.11
2.65,9.48,0.63,27.51,-31.83,-20.23,0.03,-0.49,-0.43
2.29,9.96,0.56,27.90,-32.18,-19.72,-0.31,-0.27,-0.14
2.42,9.08,0.27,28.12,-32.43,-18.87,-0.48,-0.24,-0.05
2.15,9.42,0.04,28.71,-31.88,-18.18,-0.60,-0.32,-0.38
2.51,9.45,0.06,29.77,-32.26,-16.59,-0.74,-0.21,-0.49
2.80,9.22,-0.53,30.04,-32.08,-15.68,-0.81,-0.15,-0.66
3.26,8.82,-0.53,31.28,-32.33,-14.48,-0.69,-0.23,-0.45
3.04,9.87,-0.37,31.64,-32.02,-13.46,-0.87,-0.39,-0.30
3.42,9.43,-1.14,31.96,-32.05,-12.89,-0.85,-0.44,-0.09
2.89,9.47,-1.12,32.24,-32.43,-12.35,-0.65,-0.20,0.01
3.42,9.13,-1.49,32.39,-33.02,-11.63,-0.61,-0.21,-0.09
3.38,9.02,-1.46,32.52,-32.72,-10.30,-0.57,-0.24,0.06
3.29,9.10,-1.54,32.51,-32.96,-9.57,-0.33,-0.37,0.11
2.89,9.24,-1.73,32.55,-32.91,-9.00,-0.33,-0.43,0.11
3.27,8.94,-1.84,32.11,-32.74,-8.73,-0.26,-0.40,0.11
2.99,8.92,-1.61,31.85,-33.15,-8.18,-0.14,-0.39,0.04
3.22,9.20,-1.70,31.73,-33.57,-9.16,-0.17,-0.44,0.10
2.98,8.56,-1.67,32.02,-33.08,-7.98,-0.20,-0.39,0.07
3.21,8.85,-2.07,31.99,-33.16,-8.49,-0.16,-0.40,0.14
3.32,9.12,-2.04,31.63,-33.82,-8.20,-0.15,-0.47,0.14
2.97,9.15,-1.88,31.66,-33.67,-8.27,-0.29,-0.30,0.11
3.20,8.97,-2.05,32.02,-33.85,-6.77,-0.35,-0.28,0.03
3.27,8.89,-2.31,31.63,-34.00,-6.58,-0.25,-0.34,-0.04
3.17,8.49,-2.07,31.92,-34.30,-5.63,-0.30,-0.51,0.49
2.84,9.47,-2.08,31.19,-34.36,-5.35,-0.45,-0.36,0.49
3.32,9.29,-2.53,31.01,-34.16,-5.38,-0.26,-0.38,0.02
2.86,8.74,-2.48,30.96,-34.61,-4.63,-0.26,-0.41,-0.14
2.99,8.87,-2.58,30.88,-34.68,-4.76,-0.25,-0.40,-0.10
2.96,8.87,-2.63,31.22,-34.73,-4.49,-0.26,-0.40,0.04
3.02,8.74,-2.66,31.34,-34.55,-3.89,-0.20,-0.45,0.06
2.88,9.02,-2.84,31.45,-34.30,-4.05,-0.25,-0.48,-0.06
3.10,8.97,-2.98,31.32,-34.04,-4.06,-0.30,-0.46,0.00
2.87,8.92,-2.76,31.82,-34.46,-3.57,-0.36,-0.51,0.02
3.10,8.52,-2.96,31.38,-34.55,-3.62,-0.27,-0.50,0.02
2.91,8.65,-3.03,31.56,-34.20,-3.05,-0.25,-0.51,0.02
2.53,6.68,-4.28,31.44,-34.39,-3.32,-0.31,-0.67,0.07
2.78,10.28,-2.35,30.63,-34.95,-2.67,-0.42,-0.65,0.51
3.80,8.74,-3.34,30.36,-34.73,-2.78,-0.42,-0.52,-0.21
3.26,8.35,-3.43,30.40,-34.35,-1.74,-0.42,-0.57,-0.19
3.39,8.28,-3.32,30.69,-34.46,-1.74,-0.30,-0.52,-0.15
3.29,8.35,-3.43,30.78,-34.20,-1.08,-0.24,-0.50,-0.13
3.43,8.26,-3.37,31.67,-34.51,-0.88,-0.18,-0.54,-0.06
3.47,8.40,-3.51,31.42,-34.58,-0.45,-0.20,-0.52,-0.03
3.80,8.22,-3.55,31.28,-34.11,-0.63,-0.19,-0.50,-0.18
3.48,8.19,-3.51,31.63,-34.35,-0.96,-0.15,-0.48,-0.19
3.54,8.24,-3.37,32.01,-34.20,-0.51,-0.11,-0.43,-0.14
3.62,8.23,-3.53,32.71,-33.48,-0.20,-0.20,-0.34,-0.14
3.63,7.96,-3.69,33.09,-33.75,0.44,-0.18,-0.36,-0.17
3.64,8.18,-3.57,33.29,-33.76,-0.18,-0.20,-0.32,-0.20
3.70,8.04,-3.86,33.86,-33.59,-0.34,-0.19,-0.30,-0.19
4.14,8.00,-3.98,34.29,-32.90,1.99,-0.11,-0.33,-0.14
3.67,7.62,-4.08,34.42,-33.40,1.96,-0.16,-0.25,-0.09
3.88,7.77,-3.91,34.11,-33.13,2.43,-0.14,-0.18,0.02
3.42,7.59,-3.91,33.81,-32.83,3.27,-0.03,-0.22,0.14
3.69,7.92,-4.08,34.24,-32.59,3.11,-0.09,-0.18,0.14
3.67,7.90,-3.90,34.19,-32.93,2.73,-0.14,-0.27,-0.01
3.64,7.79,-4.20,34.74,-32.58,2.95,-0.05,-0.32,0.07
3.84,7.97,-4.32,34.80,-33.05,2.43,-0.15,-0.17,0.12
3.67,8.04,-4.06,34.52,-32.24,4.62,-0.18,-0.18,0.06
3.32,7.85,-3.98,34.22,-32.39,4.28,-0.08,-0.22,0.15
3.70,8.03,-4.22,34.14,-32.81,4.98,-0.14,-0.13,0.24
3.61,7.93,-4.57,33.78,-33.06,6.11,-0.06,-0.22,0.14
3.29,8.11,-4.40,33.73,-33.16,5.93,-0.18,-0.21,0.14
3.43,7.82,-4.41,33.89,-33.31,6.30,-0.13,-0.25,0.17
3.22,7.80,-4.46,33.95,-33.38,6.17,-0.13,-0.21,0.16
3.40,7.87,-4.54,33.84,-33.22,6.01,-0.17,-0.24,0.11
3.05,7.66,-4.81,33.73,-33.02,5.83,-0.22,-0.26,0.01
3.37,7.77,-4.63,33.13,-33.53,6.80,-0.41,-0.12,0.07
3.47,7.65,-4.82,33.31,-33.06,7.15,-0.30,-0.22,0.09
3.57,7.39,-4.98,33.35,-33.08,8.62,-0.24,-0.30,0.02
3.33,7.23,-5.20,33.46,-33.43,8.45,-0.21,-0.34,0.00
3.10,7.03,-5.19,33.34,-33.29,9.19,-0.27,-0.14,0.15
3.11,7.60,-5.06,33.47,-33.50,10.22,-0.17,-0.04,0.29
2.79,7.62,-5.34,32.67,-33.65,10.52,-0.14,-0.09,0.31
2.92,7.85,-5.37,32.34,-33.47,10.17,-0.16,-0.16,0.34
2.76,7.78,-5.63,31.82,-33.65,10.20,-0.17,-0.21,0.30
2.73,7.58,-5.27,31.60,-33.89,10.74,-0.21,-0.21,0.25
2.71,7.59,-5.43,31.22,-33.63,11.52,-0.14,-0.26,0.32
2.60,7.69,-7.31,30.47,-33.81,12.41,-0.22,-0.34,0.28
2.23,7.27,-5.18,30.77,-34.23,11.84,-0.26,-0.25,0.31
2.48,7.45,-5.64,29.96,-33.75,12.19,-0.20,-0.21,0.37
2.30,7.46,-5.71,29.45,-33.91,12.70,-0.19,-0.31,0.28
2.23,7.38,-5.56,29.04,-34.70,13.17,-0.20,-0.32,0.22
2.32,7.54,-6.09,28.73,-34.16,14.09,-0.21,-0.32,0.21
2.07,7.26,-5.96,29.01,-34.73,14.59,-0.27,-0.22,0.26
1.97,7.03,-6.13,28.50,-34.38,15.19,-0.42,-0.04,0.41
1.86,6.96,-5.85,28.22,-34.73,15.57,-0.43,-0.17,0.74
1.78,7.90,-5.97,26.79,-34.77,16.24,-0.29,-0.02,0.68
1.85,7.27,-6.40,26.10,-34.77,17.14,-0.34,-0.00,0.42
1.72,7.15,-6.18,25.21,-34.70,17.80,-0.12,-0.34,0.29
1.07,7.19,-5.81,24.95,-34.96,17.83,-0.10,-0.31,0.35
1.06,7.18,-6.05,24.42,-35.00,17.44,-0.16,-0.04,0.35
1.38,7.19,-6.32,23.78,-34.93,18.27,-0.14,-0.13,0.25
0.93,7.16,-6.45,23.43,-34.68,18.91,-0.18,-0.13,0.21
0.85,7.14,-6.47,23.33,-35.02,19.22,-0.13,-0.22,0.19
0.64,7.12,-6.56,23.22,-34.73,18.36,-0.08,-0.27,0.24
0.54,6.92,-6.58,22.35,-34.84,19.12,-0.11,-0.26,0.23
0.88,7.19,-6.76,22.45,-34.92,19.04,-0.17,-0.13,0.31
0.49,7.18,-6.66,21.75,-35.46,19.82,-0.16,-0.22,0.31
0.73,7.20,-6.68,20.87,-34.77,19.92,-0.13,-0.24,0.32
0.68,6.68,-6.51,20.90,-35.18,20.18,-0.10,-0.30,0.26
0.42,7.06,-6.56,20.90,-35.08,20.77,-0.11,-0.29,0.21
0.46,6.80,-6.70,20.36,-35.43,21.35,-0.23,-0.23,0.22
0.09,6.83,-6.64,19.96,-35.28,21.06,-0.17,-0.23,0.25
0.65,6.98,-6.89,19.98,-35.21,21.41,-0.21,-0.23,0.25
0.07,6.67,-6.87,18.90,-34.36,22.17,-0.10,-0.26,0.24
0.33,6.93,-7.19,18.58,-35.06,21.86,-0.15,-0.26,0.36
0.24,6.58,-6.81,18.20,-34.42,22.27,-0.18,-0.33,0.20
0.02,6.73,-6.88,17.74,-34.98,22.14,-0.07,-0.31,0.21
0.07,6.81,-7.14,17.22,-34.64,22.17,-0.20,-0.35,0.18
-0.24,6.58,-7.06,17.68,-34.29,22.68,-0.24,-0.26,0.15
-0.33,6.84,-6.55,17.16,-34.62,23.37,-0.04,-0.22,0.26
-0.44,7.04,-7.36,16.16,-34.23,23.06,-0.02,-0.11,0.52
-0.21,6.58,-6.68,16.16,-35.05,23.94,-0.31,-0.42,0.20
0.02,6.32,-7.11,16.27,-34.58,23.90,-0.19,-0.49,0.16
-0.31,6.47,-7.22,15.87,-34.67,24.38,-0.12,-0.54,0.03
-0.47,6.42,-7.06,16.08,-33.98,23.94,-0.14,-0.40,0.21
-0.34,6.47,-7.52,15.86,-34.29,23.72,-0.10,-0.38,0.28
-0.49,6.09,-7.15,15.70,-34.61,23.95,-0.17,-0.41,0.23
-0.32,6.19,-7.31,15.26,-34.48,24.06,-0.11,-0.38,0.14
-0.38,6.15,-7.42,15.13,-34.24,24.79,-0.15,-0.33,0.14
-0.19,6.37,-7.53,15.19,-34.26,25.45,-0.19,-0.45,-0.01
-0.57,6.24,-7.09,15.33,-33.43,25.88,-0.19,-0.41,0.01
-0.24,6.20,-7.46,15.01,-34.20,25.97,-0.09,-0.25,0.12
-0.14,6.09,-7.44,15.01,-33.60,27.01,-0.19,-0.25,0.00
-0.20,6.01,-7.29,15.14,-33.69,27.33,-0.20,-0.23,-0.05
-0.54,5.92,-7.40,15.17,-33.41,26.91,-0.14,-0.21,0.01
-0.34,6.04,-7.66,14.56,-33.57,26.56,-0.12,-0.08,0.09
-0.38,6.04,-7.56,13.86,-33.53,26.81,-0.16,-0.22,-0.07
-0.73,5.84,-7.31,13.84,-33.10,26.73,-0.10,-0.24,-0.11
-0.80,6.13,-7.67,14.07,-32.72,27.58,-0.14,-0.18,-0.03
-0.71,5.84,-7.46,13.91,-32.90,27.38,-0.15,-0.26,-0.10
-0.68,7.11,-7.96,14.38,-32.18,26.75,-0.19,-0.44,-0.30
-0.95,5.61,-7.35,14.44,-32.14,27.71,-0.27,-0.34,-0.15
-0.65,5.85,-7.54,14.47,-32.18,28.09,-0.15,-0.25,-0.05
-0.41,5.71,-7.62,14.66,-31.53,28.30,-0.18,-0.10,-0.08
-0.65,5.41,-7.46,14.57,-31.60,28.44,-0.17,-0.14,-0.11
-1.04,3.94,-7.97,14.83,-31.72,28.92,-0.12,-0.23,-0.10
-0.62,5.76,-7.67,14.72,-31.32,30.04,-0.13,-0.14,-0.06
-0.24,5.61,-7.76,14.98,-31.44,29.51,-0.13,-0.22,-0.16
-0.76,5.67,-7.85,14.75,-30.74,29.52,-0.05,-0.21,-0.14
-0.80,5.69,-8.01,14.82,-30.49,29.63,-0.10,-0.28,-0.15
-1.01,5.79,-7.51,14.72,-30.31,29.96,-0.10,-0.28,-0.17
-1.36,6.03,-7.54,15.51,-30.14,29.93,-0.05,-0.26,-0.07
-0.50,5.66,-8.05,15.52,-30.09,30.17,-0.16,-0.39,-0.11
-0.57,5.56,-8.11,16.05,-30.01,29.63,-0.21,-0.49,-0.26
-0.65,5.72,-8.10,16.24,-29.73,30.97,-0.30,-0.47,-0.21
-0.52,5.87,-8.28,16.52,-29.17,31.20,-0.38,-0.59,-0.23
-0.31,5.07,-7.93,16.59,-27.92,31.50,-0.31,-0.78,-0.21
-0.91,4.54,-7.42,17.67,-28.30,31.31,-0.30,-1.05,0.05
-0.53,4.82,-8.20,17.55,-28.06,32.02,-0.44,-0.54,-0.01
-0.17,4.60,-7.95,17.64,-27.68,31.76,-0.69,-0.76,-0.10
0.36,5.49,-8.16,18.90,-26.67,32.70,-0.34,-1.30,-0.28
-0.01,4.49,-8.03,19.73,-27.19,32.34,-0.42,-0.80,-0.26
-0.83,4.59,-7.15,20.08,-25.53,32.61,-0.78,0.21,-0.21
1.22,4.16,-7.01,19.03,-24.41,34.45,-1.14,1.39,-0.16
0.04,4.62,-9.40,16.85,-22.16,37.24,-1.32,1.73,-0.07
0.17,4.49,-9.53,15.36,-20.59,38.23,-0.40,-0.31,0.00
-1.77,3.55,-9.21,16.19,-20.89,38.26,0.04,-0.66,0.02
-0.77,3.41,-8.79,15.46,-19.29,39.78,-0.77,0.07,-0.05
-0.78,3.12,-8.65,15.77,-18.25,40.95,-0.83,-0.38,-0.19
-1.23,2.76,-8.94,15.71,-16.30,42.43,-1.08,-0.33,-0.42
-0.04,2.98,-11.00,15.00,-15.43,42.06,-0.34,0.04,0.36
-0.80,2.58,-8.42,14.73,-15.40,42.75,-0.06,-0.42,0.24
-1.11,2.06,-9.01,14.69,-15.43,42.88,-0.22,-0.64,0.27
-1.19,2.42,-9.26,15.20,-14.97,43.09,-0.27,-0.51,0.26
-0.52,2.45,-9.60,14.86,-14.92,43.09,-0.26,-0.51,0.21
-0.70,2.47,-8.56,15.35,-15.08,43.00,-0.16,-1.20,0.32
-0.34,2.19,-8.99,15.70,-14.78,43.01,-0.41,-0.42,0.39
-0.53,2.28,-9.16,15.64,-13.96,42.93,-0.44,-0.44,0.59
-0.84,2.18,-9.21,15.07,-13.65,44.04,-0.29,-0.55,0.54
-1.03,2.25,-9.27,14.56,-13.27,43.92,-0.56,-0.23,0.72
-0.51,2.40,-10.97,13.80,-12.44,44.81,-0.44,-0.39,0.62
-2.23,2.02,-9.68,13.12,-12.06,44.67,-0.84,0.30,0.59
-1.14,1.69,-9.94,12.44,-11.39,44.71,-0.23,-0.61,0.23
-0.75,1.54,-8.63,13.53,-11.49,44.24,-0.10,-0.90,0.11
-1.77,1.12,-9.02,14.06,-11.20,44.58,-0.61,-0.65,0.21
-0.70,0.50,-9.25,13.86,-10.39,44.77,-0.62,-0.86,-0.02
-0.34,1.36,-9.88,14.69,-10.10,44.81,-0.42,-0.96,-0.11
-0.29,1.79,-9.61,15.68,-8.61,45.15,-0.46,-0.54,-0.02
-0.88,0.24,-9.71,16.50,-8.56,45.50,-0.43,-0.59,0.17
-0.65,0.37,-10.53,16.53,-7.89,45.48,-0.33,-0.51,-0.06
-0.38,-0.06,-9.79,16.65,-7.89,46.13,-0.04,-0.60,-0.20
0.24,0.03,-9.35,17.30,-7.22,45.63,0.13,-0.69,-0.02
0.43,0.03,-9.75,17.26,-7.37,45.94,0.01,-0.69,0.22
-0.60,0.83,-10.83,17.82,-7.53,45.78,-0.18,-0.26,0.35
0.01,0.75,-9.35,17.68,-7.61,45.85,0.01,-0.65,0.28
0.36,1.28,-9.01,17.20,-7.25,46.14,-0.08,-0.52,0.36
-1.31,-0.03,-9.61,17.04,-7.40,45.35,-0.46,-0.93,0.39
-0.71,-0.04,-9.64,18.62,-7.73,45.94,-0.29,-0.71,0.14
0.43,-0.02,-9.55,18.55,-6.93,45.51,-0.53,-0.15,-0.02
0.07,-0.01,-9.63,17.96,-6.52,46.52,-0.52,-0.41,0.17
-0.04,0.06,-9.78,17.55,-5.70,45.75,-0.32,-0.53,0.13
0.01,-0.20,-9.73,17.92,-5.44,46.67,-0.46,-0.25,0.27
-0.29,0.11,-9.11,17.49,-3.90,47.52,-0.71,0.00,0.19
0.26,-1.79,-9.78,16.12,-2.73,47.79,-0.75,0.39,0.21
-0.19,-1.05,-9.63,14.95,-1.75,49.04,-0.59,-0.07,0.27
-0.44,-0.86,-9.81,15.14,-1.08,48.22,-0.29,-0.61,0.13
-0.62,-1.09,-9.52,15.07,-1.33,48.22,-0.20,-0.25,0.17
0.01,-1.31,-9.27,14.53,-0.94,49.04,-0.25,-0.13,0.38
-0.12,-1.51,-9.63,14.98,-0.16,49.02,-0.56,-0.66,0.50
-1.00,-1.53,-9.70,13.97,0.94,48.87,-0.82,-0.16,0.25
-0.25,-1.13,-9.76,14.02,2.43,48.95,-0.40,-0.25,0.15
-0.01,-0.38,-9.92,14.03,2.00,49.09,-0.19,-0.41,0.24
-1.14,-1.51,-9.46,14.28,2.24,49.43,-0.24,-0.10,0.26
-0.06,-1.53,-8.95,13.23,2.54,50.00,-0.35,-0.09,0.17
-0.45,-1.57,-9.41,12.25,2.69,50.04,-0.34,-0.35,0.24
-1.13,-2.20,-9.06,12.25,4.00,50.12,-0.45,-0.22,0.10
-0.72,-2.25,-9.55,11.74,4.46,49.56,-0.47,-0.10,0.13
-0.80,-2.33,-9.57,11.66,5.19,50.47,-0.30,-0.41,0.12
-0.52,-3.04,-9.53,11.87,5.76,50.29,-0.21,-0.51,0.10
-0.88,-2.62,-9.07,12.17,6.24,50.79,-0.21,-0.64,0.06
-1.04,-2.70,-9.04,11.97,6.01,50.23,-0.23,-0.41,0.01
-1.36,-2.89,-9.06,11.63,6.71,50.63,-0.08,-0.27,0.13
-0.83,-2.60,-9.17,11.20,6.94,50.35,-0.21,-0.10,0.07
-0.56,-1.63,-9.27,11.43,7.56,50.70,-0.32,-0.32,0.13
-0.63,-2.05,-9.11,11.30,7.12,50.00,-0.32,-0.50,0.33
-1.10,-3.01,-9.20,11.55,7.56,50.51,-0.18,-0.62,0.26
-0.87,-3.19,-9.07,11.71,8.30,50.42,-0.38,-0.50,-0.01
-0.25,-2.70,-8.64,11.60,8.94,51.17,-0.44,-0.46,0.18
1.79,-2.72,-9.05,12.10,9.15,50.64,-0.22,-0.59,0.93
-0.86,-3.68,-8.99,12.51,9.18,50.75,-0.27,-0.46,0.61
-0.42,-3.47,-9.57,12.19,9.12,50.69,-0.38,-0.24,0.38
-0.02,-3.29,-9.16,12.01,10.46,50.70,-0.19,-0.57,0.39
-0.37,-3.17,-8.48,12.34,10.60,50.77,-0.22,-0.45,0.35
-0.24,-2.48,-8.00,12.29,10.52,50.69,-0.06,-0.11,-0.10
-0.48,-3.32,-9.28,11.69,10.36,50.50,-0.14,-0.04,-0.05
-0.26,-3.42,-9.19,11.47,10.80,50.98,-0.13,-0.41,0.35
-0.26,-3.59,-9.04,11.69,10.32,50.56,-0.17,-0.42,0.29
-0.24,-3.47,-8.97,11.28,10.92,50.44,-0.17,-0.28,0.16
-0.34,-3.60,-8.95,10.96,10.65,50.80,-0.16,-0.23,-0.04
-1.08,-3.12,-8.83,10.61,11.62,50.38,-0.22,-0.14,-0.09
-0.71,-4.08,-8.66,10.17,11.82,50.89,-0.51,0.00,-0.17
-0.66,-3.83,-8.79,9.84,12.58,50.73,-0.61,-0.15,-0.19
-0.85,-4.17,-9.04,9.51,13.94,50.89,-0.62,-0.31,-0.04
-0.73,-4.50,-8.60,9.43,14.70,51.05,-0.95,-0.32,-0.23
-0.34,-4.54,-8.14,9.40,16.85,50.45,-1.21,-0.24,-0.29
-1.03,-4.97,-8.14,9.15,18.40,50.41,-0.88,-0.21,-0.09
-0.88,-5.06,-7.99,8.45,19.76,50.32,-0.69,-0.02,-0.06
-0.67,-4.90,-7.41,7.80,20.86,50.58,-0.79,-0.06,-0.13
-1.21,-4.81,-7.26,7.21,22.45,50.83,-0.44,-0.15,-0.12
-1.66,-5.28,-7.57,6.93,22.61,50.61,-0.15,-0.00,-0.13
-1.12,-5.57,-7.62,5.48,23.52,51.08,-0.27,0.02,-0.10
-1.72,-5.72,-7.80,5.14,23.49,50.73,-0.34,-0.32,0.02
-1.79,-5.74,-7.80,5.33,24.55,49.94,-0.46,-0.35,0.16
-1.78,-6.06,-7.55,5.35,25.48,50.58,-0.53,-0.31,0.37
-1.64,-5.97,-7.57,5.14,29.28,49.90,-0.59,-0.19,0.22
-1.37,-5.76,-7.45,5.42,26.95,50.53,-0.55,-0.39,0.44
-1.66,-6.26,-7.44,4.91,27.29,49.36,-0.31,-0.38,0.27
-1.54,-5.85,-7.01,5.22,27.87,50.25,-0.14,-0.41,0.06
-0.98,-5.54,-6.75,5.16,27.93,49.25,0.25,-0.70,0.16
-1.56,-5.46,-7.03,5.85,27.51,49.80,0.27,-0.82,0.50
-1.08,-6.70,-7.77,6.21,27.21,49.84,-0.03,-0.61,0.63
-0.88,-6.17,-7.34,6.94,27.76,50.35,-0.31,-0.48,0.07
-0.83,-6.04,-7.14,7.23,28.24,49.75,-0.20,-0.48,0.09
-1.02,-6.30,-7.31,7.10,28.78,49.61,0.05,-0.52,0.04
-0.96,-7.06,-7.32,7.32,28.46,49.96,-0.33,-0.48,0.08
-0.95,-6.83,-7.24,7.95,29.36,49.30,-0.63,-0.69,0.19
-0.80,-6.66,-7.17,8.14,29.87,48.73,-0.85,-0.85,0.39
-0.79,-7.12,-7.06,9.27,31.04,47.90,-1.04,-0.91,0.62
-0.38,-6.14,-6.23,9.89,32.91,47.35,-0.93,-1.03,0.80
-0.67,-6.82,-6.30,11.11,34.13,46.07,-0.81,-0.74,0.44
0.02,-7.31,-6.52,11.18,34.58,46.20,-0.56,-0.47,0.15
0.18,-7.85,-6.23,11.63,35.91,45.44,-0.84,-0.71,0.30
-0.08,-6.97,-5.92,12.45,37.09,45.64,-1.19,-0.90,0.60
0.04,-7.37,-5.52,13.18,38.19,44.31,-0.81,-0.76,0.38
0.14,-7.90,-5.55,13.78,38.86,44.07,-0.58,-0.62,0.23
0.94,-7.93,-5.14,15.61,40.38,41.49,-0.63,-0.66,0.17
1.24,-8.18,-5.39,15.80,41.52,40.34,-1.12,-1.03,0.11
0.80,-8.16,-4.70,16.60,42.97,39.56,-1.63,-0.95,0.37
0.90,-8.06,-3.88,17.64,43.82,38.07,-1.05,-0.67,0.30
0.77,-8.56,-3.88,18.18,45.13,36.96,-0.40,-0.53,0.20
1.11,-8.49,-3.57,18.34,44.93,36.52,-0.54,-0.46,0.22
1.18,-8.39,-3.40,17.98,46.35,36.22,-0.34,-0.33,0.02
0.97,-9.10,-3.65,18.17,46.19,35.90,-0.25,-0.27,-0.05
1.27,-8.77,-3.37,17.92,47.28,34.87,-0.42,-0.31,0.15
1.12,-8.54,-3.24,17.57,47.50,35.37,-0.34,-0.32,0.19
1.36,-8.60,-3.24,17.82,48.00,34.67,-0.27,-0.40,0.07
1.03,-8.87,-2.81,18.05,48.74,35.14,-0.52,-0.56,-0.08
1.12,-9.01,-3.29,17.89,49.15,34.52,-0.56,-0.53,0.03
0.92,-9.02,-2.94,18.24,49.43,33.32,-0.52,-0.47,0.14
0.86,-9.11,-2.81,18.49,49.36,32.97,-0.53,-0.40,0.02
1.09,-9.22,-2.79,18.27,50.13,33.16,-0.23,-0.23,0.02
1.28,-9.42,-2.79,18.49,50.25,33.03,-0.25,-0.62,0.20
0.86,-9.60,-2.76,18.74,50.80,31.26,-0.59,-0.41,0.18
0.92,-9.17,-2.46,18.85,50.96,31.64,-0.88,-0.26,-0.00
1.26,-9.29,-2.03,18.21,52.13,30.15,-0.66,-0.24,-0.02
1.25,-9.68,-2.07,18.31,52.47,29.28,-0.39,-0.27,0.03
1.22,-9.65,-1.90,18.14,52.48,29.16,-0.30,-0.29,0.11
1.18,-9.39,-1.82,18.18,52.79,29.01,-0.43,-0.28,0.12
1.36,-9.30,-1.73,18.28,53.29,29.23,-0.53,-0.29,0.04
1.44,-9.29,-1.34,17.47,53.86,28.21,-0.55,-0.31,0.04
1.28,-9.15,-1.18,17.61,54.57,27.20,-0.41,-0.34,0.11
1.23,-9.22,-1.04,18.33,54.76,26.60,-0.45,-0.29,0.06
1.29,-9.57,-1.17,17.45,55.22,26.21,-0.67,-0.27,-0.06
1.65,-9.25,-0.63,17.33,55.83,25.17,-0.89,-0.40,-0.17
1.01,-9.55,-0.53,17.26,56.78,23.85,-0.82,-0.50,-0.02
0.75,-9.47,-0.42,16.94,56.96,23.78,-0.67,-0.36,0.05
1.05,-9.41,-0.17,17.26,58.13,22.73,-0.52,-0.31,-0.09
0.93,-9.73,-0.13,17.49,57.73,22.38,-0.58,-0.43,-0.08
0.89,-9.71,0.05,16.90,58.49,20.37,-0.78,-0.47,-0.08
0.99,-9.74,0.22,16.68,58.81,19.34,-0.77,-0.40,-0.05
0.74,-9.60,0.22,17.32,59.24,18.88,-0.75,-0.32,0.07
1.08,-9.46,0.83,16.71,59.70,17.71,-0.73,-0.31,0.15
1.11,-9.38,1.08,16.82,59.95,16.52,-0.75,-0.36,-0.02
0.91,-9.57,0.92,16.84,60.45,15.55,-0.79,-0.42,-0.21
0.90,-9.89,1.33,16.24,60.90,14.76,-0.85,-0.51,-0.23
0.70,-9.76,1.42,16.16,61.14,12.85,-0.89,-0.54,-0.07
0.60,-9.84,1.87,15.86,61.81,12.17,-1.08,-0.58,-0.07
0.63,-8.93,1.86,16.24,62.29,10.14,-1.27,-0.63,0.03
0.62,-8.92,2.75,16.08,62.19,9.22,-1.06,-0.71,-0.10
0.47,-8.98,2.93,16.49,62.74,7.45,-0.73,-0.54,-0.04
0.70,-9.04,3.09,15.97,62.47,5.28,-0.71,-0.49,-0.01
0.79,-9.12,3.37,15.92,62.42,4.90,-0.92,-0.56,-0.15
0.53,-8.94,3.28,15.43,63.07,3.30,-0.96,-0.55,-0.11
0.55,-8.90,3.85,15.05,62.98,2.16,-0.89,-0.44,-0.14
0.61,-8.85,3.83,14.60,63.12,0.88,-0.71,-0.45,0.02
0.88,-9.48,4.74,14.50,63.15,-0.61,-0.66,-0.43,0.04
0.44,-7.49,3.78,14.62,63.78,-2.00,-0.52,-0.34,-0.14
0.45,-6.45,4.45,14.62,63.68,-2.02,-0.25,-0.68,-0.26
0.34,-9.46,5.14,14.79,63.21,-2.89,-0.24,-0.51,0.11
0.11,-7.57,5.14,14.34,63.29,-4.91,-0.53,-0.58,0.17
0.15,-8.82,5.33,14.76,63.26,-5.01,-0.53,-0.34,0.09
0.23,-8.65,5.28,14.63,62.63,-5.76,-0.39,-0.45,0.07
0.54,-8.19,5.43,14.81,62.29,-5.58,-0.32,-0.46,0.30
0.44,-7.81,5.37,15.42,62.55,-6.02,-0.08,-0.37,0.57
0.60,-8.41,5.33,16.15,61.98,-5.76,-0.20,-0.41,0.18
0.24,-8.30,5.38,16.18,62.25,-7.12,-0.52,-0.32,0.06
0.90,-8.05,5.58,15.97,61.49,-8.46,-0.55,-0.26,0.37
0.27,-8.02,5.49,17.16,61.24,-8.70,-0.33,-0.30,0.52
0.52,-7.80,5.20,17.77,60.82,-8.94,-0.31,-0.16,0.37
1.03,-8.27,5.69,17.47,61.08,-8.90,-0.07,-0.36,0.23
1.07,-8.05,5.72,18.24,60.74,-9.27,-0.27,-0.47,0.11
0.68,-7.90,5.66,17.73,60.45,-10.00,-0.33,-0.55,0.02
0.65,-7.69,5.82,17.51,60.71,-10.67,-0.53,-0.52,-0.05
0.63,-7.71,5.92,17.87,60.68,-10.60,-0.65,-0.52,-0.08
0.65,-7.67,6.58,17.82,60.16,-12.03,-0.60,-0.53,-0.09
0.75,-9.04,6.38,17.74,60.07,-12.20,-0.58,-0.49,-0.14
0.39,-7.44,6.63,16.85,59.85,-13.56,-0.60,-0.45,-0.16
0.51,-7.39,6.40,16.78,60.17,-14.12,-0.53,-0.40,-0.08
0.40,-6.90,6.71,16.72,59.31,-15.17,-0.35,-0.30,-0.01
0.56,-6.95,6.57,16.68,59.38,-15.16,-0.09,-0.40,0.01
0.29,-6.87,6.47,16.75,59.69,-15.38,-0.03,-0.26,0.13
0.32,-7.28,6.75,16.75,59.72,-15.23,-0.09,-0.40,0.12
0.67,-7.72,6.90,17.23,59.97,-15.11,-0.14,-0.22,0.31
1.01,-7.57,7.42,18.04,58.92,-14.59,-0.41,-0.22,0.28
0.83,-7.06,7.10,17.64,59.21,-15.62,-0.34,-0.25,0.34
1.02,-6.90,7.01,18.37,58.80,-16.54,-0.07,-0.45,0.32
1.52,-6.31,6.91,18.82,58.83,-16.76,-0.28,-0.38,0.31
1.26,-6.66,6.86,19.00,58.29,-16.88,-0.46,-0.39,0.23
0.93,-6.56,6.37,19.86,58.08,-17.01,-0.31,-0.47,0.03
0.98,-6.79,7.18,19.63,57.86,-17.39,-0.25,-0.42,0.09
1.16,-6.53,6.97,19.67,57.54,-17.92,-0.20,-0.34,0.17
0.99,-6.81,7.58,19.91,57.42,-18.12,-0.19,-0.23,0.22
0.87,-6.45,7.16,20.71,57.25,-18.49,-0.12,-0.22,0.00
1.28,-6.65,7.49,20.39,57.28,-18.30,-0.01,-0.36,0.03
0.85,-6.65,7.22,20.52,57.40,-18.59,-0.08,-0.22,0.19
1.28,-6.31,7.02,20.40,57.38,-18.30,-0.07,-0.28,0.16
1.34,-6.30,7.28,20.49,56.96,-17.80,-0.12,-0.31,0.03
1.43,-6.32,6.88,20.87,56.68,-17.45,-0.19,-0.34,0.25
1.07,-6.54,7.26,21.67,57.18,-17.33,-0.32,-0.08,0.15
1.78,-6.40,7.29,21.66,56.40,-17.98,-0.24,-0.22,0.07
1.56,-6.25,7.87,21.81,55.86,-18.04,-0.15,-0.40,0.09
1.30,-6.66,8.12,21.65,56.11,-19.16,-0.56,-0.68,-0.06
1.39,-5.92,8.34,21.10,55.55,-19.82,-0.44,-0.57,-0.18
1.44,-5.76,8.12,20.45,55.55,-21.09,-0.27,-0.67,-0.25
1.34,-5.64,7.83,20.07,55.82,-20.84,-0.23,-0.60,-0.22
1.20,-5.66,7.41,20.13,55.92,-21.38,-0.30,-0.88,-0.48
0.69,-5.46,7.67,19.04,55.77,-21.56,-0.10,-0.84,-0.19
0.42,-5.25,7.54,18.50,55.79,-21.10,0.46,-0.31,0.03
0.11,-3.89,8.23,17.96,55.90,-21.48,-0.56,-0.46,-0.09
0.82,-4.85,5.74,17.20,55.77,-22.68,-0.31,-0.62,0.01
-0.96,-4.77,8.31,17.41,55.45,-23.38,-0.48,-0.53,0.32
0.52,-5.94,8.17,17.70,55.17,-23.95,-0.65,-0.48,0.33
1.14,-5.79,8.68,18.53,54.28,-24.41,-0.52,-0.48,0.28
0.52,-4.62,8.23,18.01,53.76,-25.52,-0.28,-0.75,0.15
-0.10,-4.21,7.21,17.79,53.16,-26.92,-0.82,-0.36,0.14
0.24,-4.53,7.94,17.74,52.13,-27.52,-1.29,-0.39,0.02
2.92,-3.35,10.11,17.41,50.63,-29.92,-1.34,-0.88,-0.23
-1.44,-4.49,5.16,16.49,49.90,-31.50,-1.25,-1.82,-0.23
0.54,-6.16,10.60,14.67,49.59,-33.73,-1.17,-0.82,-0.04
-0.12,-3.56,10.27,14.63,48.77,-33.51,-0.53,-0.00,-0.02
-0.27,-4.09,9.60,14.95,48.36,-34.05,-0.49,-0.25,-0.05
0.58,-2.61,8.89,14.78,47.46,-34.45,-0.62,-0.37,-0.04
0.06,-3.19,9.68,14.26,47.08,-34.90,-0.80,-0.37,-0.08
-0.29,-2.33,9.80,14.60,46.05,-35.31,-0.82,-0.52,0.04
-0.17,-2.81,9.78,14.89,45.15,-35.94,-0.71,-0.47,0.06
-0.27,-2.91,9.90,14.35,43.79,-36.73,-0.59,-0.46,0.12
0.04,-2.48,10.38,14.76,42.98,-38.64,-0.39,-0.39,0.16
0.29,-2.01,9.40,15.29,42.25,-38.09,-0.39,-0.38,0.12
0.20,-1.02,10.32,15.23,41.90,-38.22,-0.35,-0.58,-0.00
0.50,-2.07,10.14,15.17,41.74,-37.97,-0.35,0.05,-0.18
-0.80,-2.20,10.59,15.77,40.81,-37.81,-0.11,-0.17,0.21
0.30,-1.52,10.09,15.92,41.10,-38.23,0.04,-0.21,-0.02
-0.14,-1.95,9.73,15.81,41.10,-38.29,0.18,-0.45,-0.11
0.24,-1.96,8.89,14.72,41.73,-37.90,0.00,-0.39,-0.15
-0.17,-1.86,9.80,14.98,41.79,-37.56,-0.27,-0.44,-0.04
-0.05,-1.84,10.14,14.45,41.03,-39.20,-0.29,-0.28,-0.06
0.70,-2.26,8.81,14.89,40.11,-38.95,-0.56,-0.21,-0.08
-0.02,-1.59,10.39,15.16,39.70,-39.21,-0.64,-0.33,0.06
0.17,-1.60,9.45,14.72,39.11,-39.39,-0.43,-0.28,0.06
-0.01,-1.35,10.44,15.55,38.37,-39.43,-0.40,-0.22,0.01
0.11,-1.25,10.21,15.54,37.84,-39.05,-0.34,-0.29,0.03
0.34,-1.16,9.12,15.86,37.62,-39.62,-0.43,-0.19,-0.00
0.24,-1.03,9.88,16.30,36.99,-40.24,-0.46,-0.13,0.03
0.16,-0.52,10.30,16.97,36.73,-40.09,-0.42,-0.17,0.07
0.25,-0.83,9.85,16.53,36.06,-40.21,-0.42,-0.33,0.09
0.52,-0.61,9.91,16.71,35.49,-40.53,-0.33,-0.27,0.04
0.52,-0.52,9.88,16.91,34.95,-40.85,-0.36,-0.42,0.02
0.32,-0.50,10.25,17.04,34.49,-41.04,-0.40,-0.30,0.01
0.27,-0.39,10.03,16.81,34.20,-41.82,-0.25,-0.36,0.05
0.44,-0.39,9.79,16.90,33.82,-40.94,-0.25,-0.34,0.07
0.30,-0.19,10.38,16.84,33.44,-41.67,-0.33,-0.26,0.04
0.40,-0.11,9.87,17.41,32.89,-42.08,-0.26,-0.33,0.07
0.51,-0.03,9.86,17.16,33.00,-42.47,-0.31,-0.27,0.05
0.38,-0.09,9.97,17.39,32.32,-42.44,-0.34,-0.24,0.06
0.67,0.14,9.40,17.41,32.52,-42.33,-0.05,-0.44,0.10
0.39,-0.01,9.75,17.68,32.39,-42.62,-0.04,-0.45,0.06
0.31,0.17,10.11,17.63,32.58,-41.08,-0.03,-0.45,0.06
0.41,0.17,10.16,17.52,32.67,-42.55,-0.03,-0.43,0.06
0.42,-0.04,10.10,17.49,32.67,-41.86,-0.03,-0.41,0.08
0.62,-0.22,10.01,17.66,32.67,-42.30,-0.04,-0.45,0.15
0.68,-0.22,10.03,17.58,32.21,-42.09,-0.04,-0.48,0.26
0.32,0.04,10.04,17.66,32.67,-42.21,0.00,-0.38,0.29
-0.28,0.69,10.63,17.67,32.18,-42.37,0.03,-0.26,-0.09
0.32,0.01,9.92,17.60,32.84,-42.36,-0.01,-0.45,0.03
0.06,0.06,10.19,17.33,32.51,-41.83,0.00,-0.41,0.06
0.54,-0.42,10.55,17.28,32.39,-42.34,0.00,-0.43,0.06
0.33,-0.28,9.90,17.60,32.62,-41.80,-0.03,-0.41,0.06
0.04,-0.02,10.36,17.16,32.37,-41.65,-0.04,-0.40,0.06
0.50,0.42,10.06,17.06,32.49,-42.43,-0.02,-0.39,0.06
0.52,0.28,10.03,17.36,32.68,-42.68,-0.00,-0.38,0.06
0.60,0.04,9.83,17.52,31.99,-41.48,0.01,-0.40,0.06
0.21,-0.28,10.15,17.38,32.07,-42.25,0.00,-0.41,0.06
0.54,-0.37,9.93,17.60,32.26,-42.58,-0.02,-0.42,0.06
0.20,-0.01,10.19,17.89,32.33,-42.08,-0.03,-0.44,0.06
0.45,0.18,10.08,18.27,31.85,-42.98,-0.04,-0.39,0.06
0.34,0.32,10.09,17.54,32.14,-42.01,-0.02,-0.41,0.06
0.27,0.18,10.19,17.67,32.10,-42.33,-0.01,-0.38,0.06
0.49,0.15,10.05,17.66,32.08,-42.69,0.00,-0.38,0.06
0.12,-0.11,10.11,17.68,32.24,-41.84,-0.00,-0.39,0.06
0.63,-0.23,9.84,17.67,32.15,-42.75,-0.02,-0.39,0.06
0.38,-0.08,10.07,17.92,31.82,-42.55,-0.02,-0.40,0.06
0.46,0.01,9.96,17.52,32.23,-42.44,-0.02,-0.39,0.06
0.45,0.19,10.09,17.04,32.15,-42.17,-0.03,-0.40,0.06
0.37,0.25,10.15,17.48,31.98,-42.77,-0.02,-0.40,0.05
0.50,0.01,10.04,17.55,31.94,-43.04,-0.02,-0.40,0.06
0.28,-0.07,10.14,17.63,31.95,-42.74,-0.01,-0.40,0.06
1.23,0.36,10.49,17.01,32.15,-42.55,0.03,-0.26,0.09
0.28,-0.04,11.60,17.07,32.97,-43.28,0.07,-0.26,0.03
0.57,-0.04,10.75,17.71,32.70,-42.84,-0.02,-0.34,0.05
0.35,0.11,9.84,17.47,32.34,-43.31,-0.02,-0.35,0.06
0.34,0.12,10.24,17.64,32.11,-43.31,-0.00,-0.35,0.06
0.31,0.04,10.06,17.48,32.46,-43.45,-0.01,-0.36,0.06
0.24,0.03,10.11,17.48,32.51,-42.63,0.00,-0.37,0.06
0.80,0.04,9.46,18.31,32.75,-43.29,-0.02,-0.33,0.06
1.34,-0.14,9.98,17.54,33.15,-43.15,0.01,-0.38,0.06
0.45,-0.12,9.96,17.35,32.87,-42.62,-0.03,-0.42,0.07
0.37,-0.56,11.30,17.96,32.24,-42.82,-0.05,-0.43,0.06
-0.67,0.23,9.81,17.73,32.58,-42.53,0.00,-0.35,0.08
1.16,0.41,9.63,17.39,33.40,-42.81,0.01,-0.39,-0.01
-0.32,0.10,10.30,17.57,33.06,-43.80,-0.01,-0.45,-0.04
0.66,-0.07,10.18,17.66,32.90,-42.84,-0.02,-0.40,0.06
0.51,-0.29,9.86,16.79,33.06,-42.72,-0.04,-0.41,0.06
0.50,-0.14,9.96,17.41,33.16,-42.82,-0.04,-0.45,0.04
0.46,0.04,10.04,17.09,33.46,-43.29,-0.07,-0.38,-0.14
0.14,0.08,9.58,17.09,32.75,-42.96,-0.06,-0.48,-0.08
0.26,0.04,10.23,16.53,33.10,-43.19,-0.01,-0.33,0.05
0.12,0.06,10.51,17.10,32.83,-43.25,-0.01,-0.34,0.08
0.33,-0.05,10.33,16.18,33.08,-43.61,-0.04,-0.40,0.05
0.64,-1.77,10.05,16.44,32.36,-43.34,-0.10,-0.50,0.08
0.22,0.57,9.87,16.37,32.81,-43.53,-0.15,-0.44,-0.07
0.06,-0.26,9.99,16.38,32.23,-42.79,-0.31,-0.55,-0.18
0.17,0.00,10.12,16.21,32.46,-43.93,-0.29,-0.59,-0.09
0.51,0.57,10.09,15.58,31.91,-43.17,-0.31,-0.57,-0.08
0.21,1.09,10.59,15.67,31.67,-43.74,-0.45,-0.49,-0.06
0.44,0.45,10.07,15.26,30.69,-44.27,-0.52,-0.34,-0.10
0.04,0.23,10.07,15.43,29.77,-43.98,-0.25,-0.42,0.16
0.09,0.98,10.32,15.70,29.77,-45.10,-0.17,-0.61,0.23
0.78,1.09,10.16,15.48,29.09,-44.61,-0.39,-0.54,0.09
0.54,0.99,10.11,15.80,28.73,-45.21,-0.48,-0.31,-0.32
-0.11,1.20,10.06,15.23,27.96,-45.10,-0.59,-0.31,-0.26
0.12,1.43,10.10,14.91,27.36,-45.43,-0.59,-0.34,-0.09
0.41,1.21,10.16,14.57,26.43,-45.60,-0.40,-0.33,-0.20
0.09,1.57,10.11,15.20,25.72,-45.37,-0.34,-0.29,-0.24
0.30,1.61,9.96,15.19,25.10,-46.11,-0.27,-0.23,-0.11
0.28,1.73,10.19,14.89,24.99,-45.43,-0.25,-0.15,-0.13
0.39,2.02,10.14,15.35,24.86,-45.31,-0.27,0.00,-0.34
0.27,1.73,9.60,15.49,24.32,-45.05,-0.53,0.12,-0.62
0.47,1.66,9.76,16.12,24.12,-45.57,-0.39,-0.09,-0.26
1.18,2.24,9.91,16.63,23.53,-44.94,-0.21,-0.17,-0.19
1.28,2.51,9.84,16.63,22.62,-44.96,-0.22,-0.09,-0.29
1.26,2.43,9.56,16.84,22.89,-45.00,-0.50,0.11,-0.42
1.15,1.95,9.53,17.82,22.08,-44.62,-0.62,0.27,-0.57
1.34,2.34,9.60,18.27,21.40,-44.86,-0.01,0.11,-0.57
1.97,2.74,9.73,18.88,21.67,-45.79,-0.37,0.07,-0.42
2.13,2.81,9.67,19.73,21.24,-45.40,-0.65,0.50,-0.79
2.08,2.53,9.25,20.77,20.93,-45.53,-0.60,0.60,-0.90
2.38,2.71,9.03,22.45,20.21,-44.05,-0.63,0.48,-0.66
2.71,2.85,9.05,22.79,20.13,-43.85,-0.66,0.37,-0.66
3.15,3.02,8.88,23.91,18.56,-42.68,-0.71,0.29,-0.61
3.12,2.99,8.76,24.42,18.23,-43.22,-0.72,0.28,-0.73
3.44,2.89,8.50,25.46,18.52,-43.03,-0.64,0.17,-0.65
3.70,3.04,8.33,25.75,17.42,-42.66,-0.58,0.02,-0.54
4.18,3.18,8.38,26.83,17.10,-42.09,-0.60,0.00,-0.57
3.89,3.32,8.28,27.13,17.17,-42.28,-0.51,0.16,-0.71
4.16,3.42,8.39,27.62,16.34,-42.30,-0.65,0.19,-0.70
4.43,3.60,8.27,28.68,16.11,-42.33,-0.66,0.31,-0.85
4.49,3.38,7.83,30.17,16.30,-42.06,-0.54,0.39,-0.86
5.19,3.54,7.82,30.68,15.96,-40.75,-0.63,0.44,-0.81
5.08,3.50,7.61,31.34,15.86,-40.35,-0.74,0.45,-0.87
5.58,3.48,7.13,32.42,15.90,-39.80,-0.76,0.31,-0.64
6.04,3.42,7.07,32.78,15.97,-38.82,-0.63,0.19,-0.61
5.99,3.49,6.71,33.65,15.43,-39.30,-0.46,0.23,-0.66
6.29,3.57,6.73,34.68,15.74,-38.67,-0.60,0.20,-0.70
6.63,3.41,6.50,34.76,15.58,-38.00,-0.63,0.07,-0.70
6.25,3.30,6.51,35.12,15.55,-37.90,-0.56,0.27,-0.90
6.71,3.25,6.20,36.86,16.12,-36.55,-0.65,0.23,-0.81
6.96,3.31,6.06,36.96,15.80,-36.41,-0.58,0.28,-0.81
7.30,3.26,5.83,37.58,15.92,-35.95,-0.63,0.44,-0.90
7.54,2.78,5.53,38.03,16.66,-34.58,-0.74,0.59,-1.01
7.65,2.94,5.74,39.48,17.26,-33.34,-0.66,0.41,-1.09
8.05,2.81,5.08,39.65,16.85,-33.41,-0.69,0.53,-0.91
8.36,2.55,4.61,40.00,17.30,-32.34,-0.76,0.50,-0.86
8.04,2.87,4.42,41.38,17.70,-31.41,-0.73,0.39,-0.96
8.63,2.20,4.06,42.08,18.65,-30.17,-0.80,0.20,-0.75
8.79,2.07,3.71,42.12,18.02,-30.96,-0.83,0.09,-0.85
8.68,2.07,3.75,42.24,18.56,-30.11,-0.71,0.15,-0.77
8.61,1.81,3.71,42.69,18.74,-28.60,-0.54,0.19,-0.90
8.74,1.90,3.47,43.32,19.61,-29.03,-0.63,0.31,-0.92
9.13,1.16,3.21,43.54,19.80,-27.65,-0.69,0.41,-0.88
9.04,1.55,2.79,44.36,20.70,-26.34,-0.55,0.46,-0.97
9.14,1.44,2.95,44.68,21.76,-25.64,-0.38,0.71,-1.30
9.04,0.87,2.08,44.81,22.96,-24.73,-0.29,0.70,-1.01
9.43,0.39,2.05,45.07,24.25,-23.30,-0.36,0.62,-0.84
9.26,0.11,1.59,45.64,24.85,-21.95,-0.20,0.56,-0.79
9.45,-0.08,1.46,46.07,25.88,-20.04,-0.20,0.67,-0.67
9.44,-0.21,1.16,46.70,28.79,-17.45,0.06,1.12,-0.90
9.63,-0.85,0.07,47.00,29.76,-15.29,-0.11,0.87,-0.76
9.15,-0.33,0.02,46.70,30.69,-13.33,-0.17,0.85,-0.48
9.91,-1.11,-0.57,47.24,31.56,-11.59,-0.46,0.96,-0.56
9.67,-1.31,-0.62,47.28,31.57,-9.87,-0.40,0.86,-0.58
9.49,-1.67,-1.26,47.27,33.24,-8.61,-0.30,0.75,-0.80
9.47,-2.11,-1.62,47.24,34.11,-7.56,-0.38,0.61,-0.62
9.06,-2.12,-1.66,47.21,34.93,-6.42,-0.24,0.48,-0.44
9.20,-1.77,-1.75,47.24,35.37,-5.48,-0.38,0.69,-0.43
8.83,-2.01,-2.09,47.08,35.97,-4.09,-0.43,0.96,-0.60
8.69,-2.37,-2.49,46.48,36.73,-2.50,-0.48,1.04,-0.75
8.59,-2.48,-2.86,46.13,37.40,-2.13,-0.26,1.10,-0.61
8.65,-2.95,-3.41,45.69,38.78,1.42,-0.44,1.32,-0.74
8.03,-3.14,-3.55,44.80,39.52,2.60,-0.36,1.34,-0.66
7.50,-3.35,-4.15,44.12,40.46,4.05,-0.34,1.37,-0.63
7.50,-3.45,-3.91,43.57,41.42,6.64,-0.40,1.66,-0.56
7.03,-3.60,-4.69,43.00,42.69,8.67,-0.25,1.48,-0.98
6.97,-4.54,-5.50,41.06,43.95,10.49,-0.32,1.33,-0.89
6.37,-4.35,-5.53,39.83,45.44,12.99,-0.19,1.24,-0.89
5.97,-4.35,-6.01,38.26,47.00,14.37,-0.23,1.12,-1.00
5.71,-4.73,-6.07,36.17,47.66,15.21,-0.20,1.13,-0.87
5.05,-5.27,-6.96,35.18,49.17,16.14,-0.23,0.88,-0.79
4.85,-5.67,-6.83,33.66,49.91,16.57,-0.36,0.60,-0.60
3.87,-5.15,-6.19,32.55,50.95,17.23,-0.44,0.59,-0.63
4.03,-5.44,-6.84,31.50,51.10,17.48,-0.63,0.48,-0.52
3.73,-5.61,-6.57,30.84,52.08,16.54,-0.71,0.24,-0.25
3.80,-5.65,-6.93,29.85,52.35,16.71,-0.73,0.21,0.07
3.90,-6.09,-6.72,29.55,52.53,15.86,-0.81,0.19,0.16
3.94,-6.14,-6.55,29.30,53.11,14.78,-0.94,0.23,0.13
3.80,-6.10,-5.84,29.26,53.80,14.35,-0.85,0.15,-0.06
3.91,-6.02,-5.61,28.69,54.38,14.53,-0.37,0.06,-0.48
3.36,-6.22,-6.22,27.30,55.09,14.57,-0.16,0.15,-0.83
2.78,-6.35,-6.17,25.97,55.50,14.53,-0.47,0.08,-0.75
2.83,-6.53,-6.07,24.90,56.58,15.10,-0.57,-0.01,-0.51
2.73,-6.52,-5.63,24.19,57.04,14.95,-0.64,-0.14,-0.57
2.51,-6.87,-5.82,23.14,57.86,13.50,-0.49,-0.19,-0.75
2.48,-7.33,-5.88,22.65,58.61,12.06,-0.85,-0.27,-0.66
1.75,-7.36,-5.84,21.88,59.43,11.15,-1.35,-0.76,-0.22
1.96,-7.86,-5.31,21.89,59.73,8.40,-1.56,-0.74,0.25
2.42,-8.25,-4.47,21.75,59.89,6.05,-1.49,-0.71,0.21
2.56,-8.06,-4.41,22.38,59.94,5.52,-0.68,-0.42,0.22
2.71,-8.30,-4.90,22.77,59.16,4.17,-0.72,-0.50,0.26
2.97,-7.95,-4.47,22.89,59.50,3.14,-0.95,-0.42,0.41
2.58,-8.48,-3.98,23.47,59.19,1.27,-1.07,-0.50,0.56
3.41,-8.44,-3.21,24.26,59.05,0.89,-0.91,-0.43,0.58
3.14,-8.46,-2.86,25.46,58.36,-1.01,-0.72,-0.33,0.22
2.75,-8.48,-2.99,24.64,58.45,-1.61,-0.56,-0.26,-0.02
2.53,-8.98,-2.99,24.50,58.26,-2.16,-0.45,-0.32,-0.10
2.56,-9.32,-3.34,24.35,57.83,-3.08,-0.58,-0.52,0.35
2.93,-8.95,-2.97,25.40,57.34,-4.49,-1.36,-0.79,1.08
3.19,-7.52,-3.33,27.13,56.30,-6.61,-1.65,-0.83,0.89
3.85,-8.52,-1.00,27.55,55.64,-8.84,-1.13,-0.51,0.07
3.06,-8.83,-1.33,27.55,54.88,-10.36,-1.05,-0.45,-0.02
2.99,-8.89,-1.39,27.93,54.31,-11.72,-1.64,-0.39,0.76
5.06,-8.62,-0.47,30.02,51.14,-15.30,-1.09,-0.24,0.30
4.21,-8.76,0.09,30.37,50.06,-17.17,-1.05,-0.10,0.26
4.11,-8.98,-0.24,31.04,49.09,-17.89,-1.22,-0.05,0.70
4.08,-8.52,0.44,32.33,47.75,-18.75,-1.07,-0.21,0.73
5.02,-7.72,0.93,32.58,46.19,-19.99,-1.04,-0.35,0.49
4.22,-8.30,1.26,33.13,45.41,-21.19,-1.09,-0.30,0.32
4.71,-8.09,1.37,34.03,44.46,-22.01,-1.20,-0.19,0.59
5.72,-7.55,1.51,34.81,42.53,-22.86,-1.42,0.04,0.71
4.93,-7.84,1.68,35.38,40.54,-23.30,-1.33,0.17,0.67
4.86,-8.46,1.93,36.73,39.24,-23.08,-1.01,0.32,0.55
5.43,-8.28,2.39,38.19,37.53,-23.71,-0.96,0.44,1.11
7.01,-7.58,2.47,39.35,34.90,-23.91,-1.06,0.63,1.68
7.14,-7.18,2.53,41.20,32.23,-22.73,-0.73,0.50,1.12
5.92,-6.96,2.28,42.49,30.59,-22.74,-0.60,0.38,1.09
6.50,-6.75,1.99,43.34,28.49,-21.63,-0.69,0.39,1.43
7.71,-6.02,1.83,44.84,26.25,-20.49,-0.71,0.43,1.58
7.37,-5.69,1.87,46.62,23.94,-19.42,-0.71,0.46,1.35
6.93,-5.71,1.44,47.25,21.27,-18.97,-0.61,0.48,1.50
7.27,-4.81,1.82,48.06,19.06,-17.76,-0.66,0.25,1.35
7.31,-4.56,2.03,48.93,17.29,-17.17,-0.69,0.23,1.20
9.17,-4.06,1.88,49.82,13.81,-16.11,-0.55,0.62,1.91
8.55,-4.19,1.31,50.47,11.58,-14.44,-0.32,0.53,1.30
8.90,-3.40,1.69,50.64,9.05,-13.69,-0.37,0.40,1.51
8.82,-4.38,1.47,51.55,6.87,-11.59,-0.33,0.50,1.64
8.75,-1.66,1.09,51.72,4.46,-10.96,-0.36,0.51,1.28
9.08,-2.66,1.00,51.65,2.81,-9.73,-0.18,0.46,1.52
11.03,-2.65,0.62,52.34,-0.15,-8.48,-0.17,0.71,1.72
9.53,-1.10,0.04,51.87,-2.03,-7.23,-0.28,0.71,1.09
9.46,-2.22,0.03,51.75,-4.08,-4.65,-0.16,0.81,1.44
10.81,-0.84,0.00,51.23,-5.61,-3.07,-0.29,1.09,1.26
9.38,-0.19,-0.52,50.80,-7.02,-0.56,-0.03,1.04,1.02
9.19,-0.62,-0.94,50.58,-8.18,2.16,0.19,0.95,1.09
7.66,-0.04,-0.70,50.10,-10.01,3.05,1.07,1.30,1.95
10.51,0.06,-3.97,49.39,-12.32,4.50,0.83,0.72,1.29
9.15,0.53,-2.53,48.17,-13.45,6.04,-0.18,0.26,0.63
9.07,0.59,-2.14,47.56,-15.04,6.15,0.03,0.59,0.93
9.20,1.13,-2.85,47.12,-15.46,7.38,0.11,0.92,1.35
9.31,1.78,-3.15,45.51,-18.15,9.72,0.16,1.20,1.81
8.66,1.99,-3.83,44.02,-20.15,11.59,0.27,1.37,1.84
8.63,2.07,-3.98,41.65,-22.14,13.59,0.03,1.32,1.58
7.69,2.70,-4.21,39.58,-23.53,15.65,0.04,1.24,1.51
7.17,2.99,-4.34,37.46,-25.17,17.49,0.09,1.27,1.50
7.14,3.38,-4.95,35.57,-26.95,18.59,0.15,1.47,1.72
6.57,3.84,-5.44,32.02,-28.22,19.76,0.07,1.34,1.40
6.45,4.21,-5.77,30.05,-28.84,21.05,-0.06,1.30,1.35
5.64,3.94,-6.01,27.24,-29.58,23.06,-0.08,1.33,1.32
5.25,4.19,-6.22,25.30,-30.69,24.29,-0.15,1.37,1.47
4.88,4.47,-6.62,21.84,-31.35,25.56,-0.07,1.25,1.14
4.06,4.28,-6.63,19.42,-31.70,26.86,0.01,1.20,0.84
3.09,4.27,-6.95,17.11,-31.99,27.11,0.00,1.41,1.25
2.80,4.92,-7.50,14.25,-32.53,27.78,0.04,1.50,1.32
3.09,5.53,-8.01,11.09,-32.81,28.40,-0.02,1.55,1.28
2.51,5.18,-7.62,7.91,-32.61,29.33,-0.13,1.63,1.15
1.40,5.37,-7.68,4.85,-32.74,30.28,0.05,1.79,1.28
-0.25,5.11,-7.94,-2.24,-31.63,29.16,-0.05,1.72,1.08
-1.28,5.25,-7.65,-5.36,-31.72,28.95,0.01,1.76,1.06
-1.92,5.07,-7.41,-8.89,-31.29,28.50,0.07,1.79,1.23
-2.30,5.29,-7.66,-11.66,-30.27,27.13,0.31,1.85,1.33
-3.26,5.22,-7.32,-15.39,-29.74,25.74,0.32,1.79,1.31
-3.98,4.74,-7.23,-18.11,-29.61,24.32,0.51,1.97,1.49
-4.62,5.15,-6.88,-21.67,-28.94,22.04,0.38,1.95,1.32
-5.32,5.08,-6.52,-24.67,-27.21,20.01,0.44,1.98,1.24
-5.93,5.44,-6.09,-27.68,-26.67,17.13,0.49,2.14,1.42
-6.81,4.97,-5.24,-30.15,-25.31,14.73,0.60,1.81,1.10
-6.83,3.64,-4.81,-32.10,-24.74,11.85,0.81,1.80,1.00
-7.21,4.62,-4.67,-34.00,-24.26,8.36,0.56,1.70,0.71
-7.98,4.51,-3.42,-34.74,-23.57,5.98,0.47,1.25,0.50
-8.03,3.96,-3.40,-35.37,-23.40,5.33,0.77,0.95,0.15
-8.07,5.30,-3.35,-35.00,-23.75,2.37,0.72,0.83,-0.09
-8.15,5.21,-3.30,-34.54,-23.74,0.47,0.52,0.76,0.09
-7.98,5.38,-2.61,-34.58,-23.68,-1.64,0.58,0.60,0.06
-8.25,5.15,-2.11,-34.58,-23.57,-3.80,0.59,0.40,-0.11
-8.59,5.25,-2.33,-34.73,-24.00,-5.39,0.62,0.38,-0.13
-8.15,5.02,-1.79,-34.17,-24.14,-6.02,0.67,0.43,0.23
-8.15,5.37,-1.28,-33.92,-23.56,-8.16,0.56,0.46,0.16
-7.56,5.83,-0.88,-33.72,-23.18,-9.49,0.71,0.24,0.01
-8.58,5.44,-0.79,-33.76,-23.15,-14.97,1.08,0.05,-0.01
-8.20,5.12,-0.80,-33.34,-22.83,-12.89,1.41,0.09,-0.04
-8.10,5.10,-0.61,-32.87,-22.01,-14.75,1.02,0.25,-0.11
-8.76,4.80,0.33,-32.02,-21.82,-16.52,0.74,0.28,-0.13
-7.64,5.51,0.36,-31.77,-21.97,-18.21,0.91,0.40,-0.23
-8.54,5.35,0.88,-30.50,-21.75,-19.77,0.86,0.07,-0.47
-8.01,5.41,1.26,-29.82,-21.50,-21.09,1.03,0.01,-0.18
-7.48,5.79,1.34,-29.00,-20.71,-23.06,1.13,-0.09,-0.37
-7.93,6.06,1.41,-29.01,-20.90,-23.69,0.63,-0.26,-0.51
-7.46,5.38,1.78,-27.62,-20.89,-24.90,0.61,-0.38,-0.88
-7.68,6.24,1.44,-26.38,-21.59,-24.74,0.62,-0.40,-0.99
-7.41,6.42,2.25,-25.81,-21.89,-25.86,0.58,-0.37,-0.88
-7.23,6.41,2.00,-24.71,-21.78,-25.93,0.74,-0.47,-0.54
-6.35,7.23,2.20,-24.20,-21.89,-27.14,0.67,-0.33,-0.49
-7.34,6.69,2.08,-23.25,-21.65,-28.49,0.79,-0.43,-0.53
-6.96,7.20,2.16,-22.92,-20.94,-28.34,0.92,-0.36,-0.24
-7.06,6.54,2.71,-22.73,-20.15,-29.64,1.14,-0.23,-0.26
-6.93,7.22,3.45,-22.55,-19.54,-31.22,1.96,-0.30,-0.25
-6.85,6.75,2.85,-21.81,-17.39,-32.78,1.87,-0.51,-0.23
-7.00,6.09,3.24,-22.38,-15.51,-34.95,1.42,-0.76,-0.24
-6.34,6.60,4.20,-21.59,-14.98,-35.65,1.49,-0.48,-0.42
-6.72,6.47,4.49,-21.31,-13.29,-36.92,1.49,-0.45,-0.32
-6.91,6.14,4.25,-21.18,-11.44,-37.39,1.46,-0.45,-0.01
-6.28,5.46,3.96,-21.21,-10.11,-38.19,1.62,-0.45,0.11
-6.45,5.97,5.28,-21.16,-7.99,-39.89,1.44,-0.35,-0.03
-5.97,5.67,5.37,-21.19,-6.56,-40.69,1.16,-0.36,-0.15
-5.97,5.07,4.95,-20.89,-4.68,-40.89,1.57,-0.19,-0.20
-6.20,5.58,5.70,-20.26,-2.48,-41.71,1.57,-0.18,-0.09
-6.09,5.21,6.20,-20.40,-1.32,-42.47,1.01,-0.24,-0.13
-5.99,5.01,5.97,-19.69,0.45,-43.06,1.21,-0.13,-0.50
-6.12,4.11,6.11,-19.31,2.24,-42.84,1.70,-0.12,-0.30
-5.88,4.61,7.09,-18.37,4.14,-44.52,1.43,-0.15,-0.17
-5.79,4.52,7.85,-17.10,8.02,-44.56,1.09,-0.06,-0.84
-5.22,3.95,7.68,-16.75,9.05,-45.21,1.08,-0.13,-0.40
-5.88,3.63,7.39,-16.78,11.01,-46.32,1.46,-0.34,-0.26
-5.23,3.73,7.59,-16.60,12.51,-45.79,0.90,-0.24,-0.18
-5.20,2.92,7.32,-15.99,14.06,-45.50,0.96,-0.24,-0.12
-4.83,3.06,7.85,-16.21,15.33,-45.64,1.05,-0.33,0.02
-4.98,2.98,8.87,-16.31,16.54,-45.50,0.83,-0.21,-0.09
-4.79,2.60,8.10,-15.57,17.66,-45.59,0.65,-0.22,0.11
-5.14,2.57,8.18,-15.52,19.03,-45.43,0.86,-0.36,0.25
-4.79,2.71,8.90,-15.70,20.27,-45.88,0.65,-0.16,0.06
-5.03,2.40,8.78,-15.10,21.16,-46.90,0.63,-0.28,-0.06
-4.64,1.97,8.20,-14.75,22.16,-45.72,0.84,-0.19,0.06
-5.14,2.00,8.45,-14.24,23.63,-45.88,1.13,-0.11,0.17
-4.45,1.60,9.02,-13.52,24.89,-45.48,1.01,-0.18,0.08
-4.62,1.16,8.57,-13.33,26.47,-45.26,1.16,-0.10,0.03
-4.77,0.77,8.99,-13.21,28.69,-44.33,1.52,0.14,-0.00
-4.47,0.55,9.23,-12.77,30.84,-44.40,1.22,0.12,-0.13
-4.40,0.83,9.84,-12.06,32.68,-43.77,1.03,0.01,-0.09
-4.22,-0.29,9.00,-11.84,34.33,-42.96,1.06,0.13,-0.17
-3.94,-0.34,9.08,-11.12,35.47,-42.39,1.05,0.15,-0.09
-3.78,-0.06,9.89,-10.79,36.98,-42.22,1.14,0.06,0.03
-3.76,-0.50,9.73,-10.01,38.34,-42.06,0.79,0.04,-0.14
-3.85,-1.18,8.99,-9.28,39.08,-40.76,0.93,-0.01,-0.12
-3.36,-1.08,8.80,-8.92,40.89,-39.71,1.13,-0.01,0.02
-4.02,-0.96,9.20,-8.90,42.28,-39.16,1.19,0.16,-0.09
-3.55,-1.27,8.71,-8.20,43.98,-38.80,0.88,-0.09,-0.16
-3.14,-2.25,9.18,-8.39,44.88,-38.25,0.97,-0.17,-0.10
-2.92,-2.74,8.73,-8.21,46.08,-37.75,1.14,0.23,-0.00
-2.82,-2.50,9.15,-6.97,48.47,-36.70,1.40,0.26,0.04
-2.58,-2.70,9.58,-6.52,49.37,-36.10,1.19,0.42,0.05
-2.71,-3.30,8.82,-5.73,50.94,-34.16,1.13,0.02,0.22
-2.59,-3.60,8.92,-5.13,51.86,-33.57,1.23,-0.18,0.27
-2.11,-3.83,9.20,-4.59,53.13,-31.67,1.24,-0.08,-0.03
-2.36,-3.68,9.26,-5.01,54.38,-30.05,1.04,0.03,0.02
-2.48,-4.19,8.59,-4.91,54.95,-29.22,0.82,-0.11,0.00
-2.10,-4.72,8.51,-4.79,56.09,-27.90,0.90,-0.49,0.11
-1.50,-4.97,8.79,-5.06,57.02,-25.97,0.98,-0.46,0.27
-2.11,-5.11,8.82,-3.96,57.63,-25.52,0.78,-0.05,0.18
-2.28,-5.41,8.38,-4.11,58.49,-24.73,0.79,-0.44,0.19
-2.25,-5.53,8.17,-4.08,59.91,-23.36,0.86,-0.43,0.29
-2.40,-5.61,7.42,-3.93,60.58,-23.18,0.90,-0.33,0.31
-2.30,-5.92,7.47,-3.67,60.55,-21.62,0.90,-0.38,0.30
-1.93,-6.41,7.21,-2.65,61.34,-20.05,0.99,-0.38,0.46
-2.40,-6.58,7.22,-2.86,62.41,-19.04,1.21,-0.34,0.45
-2.45,-6.75,6.73,-1.99,63.26,-17.42,1.24,-0.61,0.38
-1.44,-7.43,7.03,-1.72,63.74,-15.48,1.56,-1.00,0.70
-2.00,-7.12,6.41,-0.88,64.91,-13.23,1.53,-0.57,0.56
-1.77,-7.98,5.93,-0.58,65.21,-11.02,1.59,-1.10,0.51
-1.23,-8.06,6.04,0.03,65.96,-7.95,1.76,-0.92,0.83
-2.49,-8.18,5.18,0.72,66.33,-5.44,1.73,-0.41,0.51
-2.68,-8.62,4.92,0.94,66.27,-2.22,1.71,-0.78,0.26
-1.20,-9.20,4.63,1.23,66.68,-0.23,1.67,-0.81,0.39
-1.49,-9.28,4.08,1.48,66.38,2.43,1.72,-0.52,0.46
-0.85,-9.21,3.60,2.32,66.71,4.66,1.54,-0.47,0.73
-0.58,-9.47,2.67,5.26,64.47,10.67,1.60,-1.14,1.13
-1.11,-9.60,2.10,6.65,63.90,12.23,1.34,-0.82,1.29
-1.03,-9.98,1.84,9.06,62.38,13.96,1.24,-1.04,1.43
0.71,-10.24,0.94,12.48,61.17,15.14,1.12,-1.09,1.88
1.86,-9.30,1.37,15.19,59.75,16.24,0.97,-0.75,2.13
1.13,-9.78,0.26,18.06,58.73,17.61,1.05,-0.32,2.31
0.55,-9.69,0.23,20.93,57.03,19.61,1.06,-0.35,1.79
0.33,-9.12,-0.14,22.07,55.19,19.72,0.87,-0.81,1.35
1.79,-8.97,-0.92,24.48,54.41,20.70,1.05,-1.09,0.88
2.17,-8.43,-0.76,25.48,52.86,21.40,1.04,-1.01,0.89
2.73,-8.87,-0.86,27.00,51.18,22.04,0.71,-0.92,0.84
2.85,-8.59,-0.70,27.93,50.28,22.52,0.80,-0.84,1.15
3.22,-8.57,-0.42,29.32,48.70,23.43,0.96,-0.84,1.62
3.99,-8.99,-1.03,31.77,46.45,23.06,0.66,-0.87,1.78
4.47,-9.05,-1.06,33.00,44.10,23.56,0.28,-0.62,1.60
3.84,-8.23,-0.80,34.93,41.74,23.47,0.16,-0.86,1.48
5.14,-8.19,-0.89,36.16,40.65,22.99,-0.04,-1.06,1.60
5.94,-7.49,-0.72,37.88,38.78,22.58,0.06,-1.00,1.88
6.17,-7.51,-1.42,39.48,36.92,21.60,0.16,-0.75,1.88
6.05,-7.37,-1.09,41.38,34.39,21.70,-0.19,-0.72,2.06
7.06,-6.55,-0.52,43.13,31.89,20.05,-0.20,-0.89,2.13
8.01,-6.07,-0.29,44.50,29.47,19.48,-0.32,-0.89,2.13
7.65,-6.12,-1.04,45.38,27.08,19.00,-0.41,-0.60,1.86
7.87,-5.89,-0.37,46.76,24.47,19.23,-0.55,-0.30,1.40
8.42,-5.05,0.15,47.16,23.06,19.15,-0.58,0.05,1.28
8.13,-5.53,-0.54,46.86,22.33,20.33,-0.70,-0.21,1.55
8.59,-4.39,0.04,47.62,19.92,19.53,-0.79,-0.37,1.61
8.52,-4.50,-0.55,48.38,18.62,19.34,-1.00,-0.43,1.72
8.51,-4.19,-0.25,49.23,16.40,19.32,-1.01,-0.56,1.60
8.20,-3.75,-0.11,49.18,15.68,19.22,-0.91,-0.69,1.43
8.80,-3.30,0.56,49.63,13.74,19.01,-0.85,-0.77,1.35
9.40,-2.63,0.62,49.81,12.22,18.37,-0.82,-0.77,1.33
9.65,-2.38,1.16,50.13,10.60,16.97,-0.91,-0.81,1.40
9.48,-2.05,0.58,50.47,9.41,16.72,-0.91,-0.67,1.32
9.21,-2.01,0.63,50.19,8.10,17.14,-0.80,-0.66,1.32
9.35,-1.47,0.93,50.42,6.74,16.91,-0.60,-0.65,1.21
9.48,-0.82,1.44,50.04,4.85,15.84,-0.64,-0.65,1.24
9.74,-1.03,1.31,49.84,3.45,16.09,-0.78,-0.57,1.23
9.61,-0.50,1.49,50.01,2.16,15.95,-0.81,-0.53,1.10
9.81,-0.01,1.32,49.71,0.47,15.64,-0.76,-0.68,1.22
9.60,0.14,1.41,49.37,-1.02,15.65,-0.79,-0.61,1.24
9.53,0.45,1.55,49.36,-1.94,15.52,-0.87,-0.62,1.19
9.65,0.93,1.64,49.09,-3.04,15.64,-0.72,-0.60,1.19
9.74,1.90,1.92,48.68,-4.75,16.12,-0.70,-0.70,1.32
9.42,2.07,1.42,48.13,-5.83,16.46,-0.75,-0.63,1.31
9.01,2.30,1.13,47.78,-8.05,15.52,-0.66,-0.58,1.27
9.08,2.51,1.12,47.24,-8.74,16.22,-0.52,-0.62,1.26
9.09,2.61,1.27,46.57,-10.27,16.57,-0.41,-0.59,1.18
9.04,3.11,1.48,46.19,-11.65,15.81,-0.40,-0.57,1.20
9.27,3.77,1.80,46.30,-12.95,16.06,-0.38,-0.58,1.18
9.40,4.24,2.03,45.16,-14.53,16.68,-0.31,-0.67,1.24
9.35,4.55,2.07,44.20,-16.35,16.22,-0.40,-0.67,1.39
8.95,4.36,1.87,43.20,-17.20,15.97,-0.61,-0.63,1.54
8.08,5.25,1.59,39.75,-20.75,16.28,-0.49,-0.78,1.60
7.71,5.74,1.59,39.43,-22.49,16.43,-0.40,-0.80,1.57
7.54,6.15,1.59,38.04,-24.12,16.22,-0.30,-0.70,1.54
7.23,6.15,1.39,37.12,-25.40,15.80,-0.35,-0.65,1.52
6.81,6.52,1.71,35.84,-26.50,15.87,-0.32,-0.69,1.52
6.54,6.94,1.80,34.54,-27.38,16.25,-0.32,-0.73,1.44
6.44,7.01,1.54,32.97,-28.65,16.18,-0.26,-0.77,1.60
6.35,7.39,1.74,31.57,-29.64,16.98,-0.18,-0.77,1.56
5.79,7.80,2.07,29.39,-30.85,17.00,-0.17,-0.67,1.51
5.04,8.00,2.05,28.05,-32.24,16.79,-0.25,-0.83,1.66
4.67,8.05,1.76,26.16,-33.09,17.39,-0.21,-0.81,1.63
4.62,8.43,2.01,23.93,-33.57,16.52,-0.20,-0.82,1.66
4.39,8.58,1.57,21.98,-34.70,16.18,-0.23,-0.84,1.85
3.25,9.04,1.74,19.89,-35.38,17.19,-0.28,-0.79,1.79
2.26,8.79,0.86,18.27,-36.23,16.66,-0.36,-0.75,1.89
1.71,9.04,1.56,15.96,-36.45,17.38,-0.18,-0.86,1.74
1.86,9.51,1.58,13.31,-37.17,17.58,-0.10,-0.89,1.45
2.05,10.18,1.10,12.22,-37.69,16.73,-0.19,-0.76,1.35
0.93,10.16,1.04,10.63,-37.49,17.52,-0.22,-0.71,1.52
0.93,9.99,1.05,8.45,-37.88,17.70,-0.15,-0.71,1.36
0.49,10.70,1.62,6.80,-37.88,17.16,-0.11,-0.61,1.15
-0.15,9.73,1.83,4.97,-37.62,17.47,-0.41,-0.53,1.27
-0.43,9.69,2.03,3.43,-38.00,18.05,-0.54,-0.55,1.11
-0.55,9.15,1.13,2.22,-37.24,19.64,-0.58,-0.67,1.06
-0.36,9.60,1.31,1.21,-37.26,19.95,-0.39,-0.72,0.80
-1.15,9.04,0.82,0.37,-36.77,21.09,-0.55,-0.84,0.93
-1.01,8.58,0.72,-0.70,-36.42,21.15,-0.61,-0.84,0.94
-1.03,8.64,0.60,-1.86,-35.40,22.55,-0.69,-0.86,0.89
-1.97,9.53,-0.11,-2.65,-35.19,22.55,-0.74,-0.84,0.44
-1.72,9.83,-0.85,-3.38,-34.57,24.98,-0.62,-1.02,0.85
-1.64,9.73,-1.27,-3.61,-33.98,25.05,-0.50,-0.88,0.83
-1.85,10.58,-0.33,-4.17,-32.93,25.31,-0.51,-0.87,0.97
-2.84,9.45,-0.80,-5.93,-32.39,26.63,-0.77,-0.70,0.98
-2.90,9.32,-1.39,-6.18,-31.96,27.73,-0.75,-0.77,0.96
-2.88,9.26,-1.28,-6.77,-30.71,28.30,-0.51,-0.94,1.22
-3.36,10.02,-0.84,-8.23,-30.24,29.48,-0.61,-0.94,1.20
-3.32,9.35,-1.02,-9.09,-28.57,30.81,-0.97,-0.93,1.30
-4.09,8.51,-1.26,-10.27,-27.48,32.05,-1.18,-0.86,1.21
-4.54,8.34,-1.91,-11.27,-25.59,33.66,-1.25,-1.08,1.14
-4.45,9.29,-1.43,-11.94,-23.79,35.87,-1.35,-1.37,0.78
-4.20,8.96,-1.55,-11.30,-21.94,36.96,-2.00,-1.44,0.89
-3.65,8.24,-1.92,-10.99,-18.25,39.96,-2.67,-1.45,1.56
-3.96,5.95,-4.64,-11.91,-14.88,42.46,-2.53,-1.62,1.84
-4.21,5.85,-5.55,-11.44,-10.60,45.16,-2.10,-1.71,1.67
-4.02,5.56,-5.46,-11.21,-6.88,45.92,-2.03,-1.42,1.30
-3.88,3.33,-6.48,-10.36,-3.93,48.13,-2.18,-1.44,1.42
